trial_type,time_elapsed,rt,key_press,condition,next_reward,responses,planet,curr_prac_trial,n_prac_rounds,button_pressed,alien,aliens,reward_received,decay_rate_actual,decay_rate_exp,time_in_block,block_num,prt,last_trial_on_planet,,,,,,,,,,,,,,,,,,,,,,,,,,,,,,,,,,,,,,,
fullscreen,7197,,,,,,,,,,,,,,,,,,,,,,,,,,,,,,,,,,,,,,,,,,,,,,,,,,,,,,,,,
instruc_welcome,9963,2763.7,32,1,,,,,,,,,,,,,,,,,,,,,,,,,,,,,,,,,,,,,,,,,,,,,,,,,,,,,,
instruc_goal,10746,780.8,32,,,,,,,,,,,,,,,,,,,,,,,,,,,,,,,,,,,,,,,,,,,,,,,,,,,,,,,
instruc_dig,13177,2430,65,,100,,,,,,,,,,,,,,,,,,,,,,,,,,,,,,,,,,,,,,,,,,,,,,,,,,,,,
dig_instruc,15187,,,,,[],,,,,,,,,,,,,,,,,,,,,,,,,,,,,,,,,,,,,,,,,,,,,,,,,,,,
harvest_instruc,16702,null,null,,,,,,,,,,,,,,,,,,,,,,,,,,,,,,,,,,,,,,,,,,,,,,,,,,,,,,,
instruc_travel,18268,1563.7,76,,,,,,,,,,,,,,,,,,,,,,,,,,,,,,,,,,,,,,,,,,,,,,,,,,,,,,,
travel_prac,28274,,,,,[],0,,,,,,,,,,,,,,,,,,,,,,,,,,,,,,,,,,,,,,,,,,,,,,,,,,,
instruc_alien_greet,29476,1201.4,32,,,,,,,,,,,,,,,,,,,,,,,,,,,,,,,,,,,,,,,,,,,,,,,,,,,,,,,
time_out,30651,1173,32,,,,,,,,,,,,,,,,,,,,,,,,,,,,,,,,,,,,,,,,,,,,,,,,,,,,,,,
instruc_break,31882,1229.9,32,,,,,,,,,,,,,,,,,,,,,,,,,,,,,,,,,,,,,,,,,,,,,,,,,,,,,,,
quiz_prac,40481,8596.6,,,,{Q0:C,Q1:B,Q2:B},,,,,,,,,,,,,,,,,,,,,,,,,,,,,,,,,,,,,,,,,,,,,,,,,,
quiz_correct,41944,1458.5,,,,{Q0:C,Q1:B,Q2:B},,,,,,,,,,,,,,,,,,,,,,,,,,,,,,,,,,,,,,,,,,,,,,,,,,
instruc_prac_game,43629,1683.6,32,,,,,,,,,,,,,,,,,,,,,,,,,,,,,,,,,,,,,,,,,,,,,,,,,,,,,,,
alien_welcome_prac,48635,null,null,,,,,,,,,,,,,,,,,,,,,,,,,,,,,,,,,,,,,,,,,,,,,,,,,,,,,,,
land_prac,49141,null,null,,101,,0,,,,,,,,,,,,,,,,,,,,,,,,,,,,,,,,,,,,,,,,,,,,,,,,,,,
dig_prac,51144,,,,,[],,,,,,,,,,,,,,,,,,,,,,,,,,,,,,,,,,,,,,,,,,,,,,,,,,,,
harvest_prac,52647,null,null,,,,,,,,,,,,,,,,,,,,,,,,,,,,,,,,,,,,,,,,,,,,,,,,,,,,,,,
decision_prac,52813,164.6,65,,,,,1,,,,,,,,,,,,,,,,,,,,,,,,,,,,,,,,,,,,,,,,,,,,,,,,,,
dig_prac,54819,,,,,[],,,,,,,,,,,,,,,,,,,,,,,,,,,,,,,,,,,,,,,,,,,,,,,,,,,,
harvest_prac,56321,null,null,,,,,,,,,,,,,,,,,,,,,,,,,,,,,,,,,,,,,,,,,,,,,,,,,,,,,,,
decision_prac,58324,null,null,,,,,2,,,,,,,,,,,,,,,,,,,,,,,,,,,,,,,,,,,,,,,,,,,,,,,,,,
time_out,60332,null,null,,,,,,,,,,,,,,,,,,,,,,,,,,,,,,,,,,,,,,,,,,,,,,,,,,,,,,,
decision_prac,62335,null,null,,,,,3,,,,,,,,,,,,,,,,,,,,,,,,,,,,,,,,,,,,,,,,,,,,,,,,,,
time_out,64342,null,null,,,,,,,,,,,,,,,,,,,,,,,,,,,,,,,,,,,,,,,,,,,,,,,,,,,,,,,
decision_prac,64477,133.1,76,,,,,4,,,,,,,,,,,,,,,,,,,,,,,,,,,,,,,,,,,,,,,,,,,,,,,,,,
travel,74347,,,,,[],0,,,,,,,,,,,,,,,,,,,,,,,,,,,,,,,,,,,,,,,,,,,,,,,,,,,
alien_welcome_prac,79434,null,null,,,,,,,,,,,,,,,,,,,,,,,,,,,,,,,,,,,,,,,,,,,,,,,,,,,,,,,
land_prac,79940,null,null,,99,,0,,,,,,,,,,,,,,,,,,,,,,,,,,,,,,,,,,,,,,,,,,,,,,,,,,,
dig_prac,81943,,,,,[],,,,,,,,,,,,,,,,,,,,,,,,,,,,,,,,,,,,,,,,,,,,,,,,,,,,
harvest_prac,83451,null,null,,,,,,,,,,,,,,,,,,,,,,,,,,,,,,,,,,,,,,,,,,,,,,,,,,,,,,,
decision_prac,83588,134.9,65,,,,,,1,,,,,,,,,,,,,,,,,,,,,,,,,,,,,,,,,,,,,,,,,,,,,,,,,
instruc_begin_exp,86418,2826.4,,,,,,,1,1,,,,,,,,,,,,,,,,,,,,,,,,,,,,,,,,,,,,,,,,,,,,,,,,
alien_welcome,91428,null,null,,,,,,,,113,31,76,15,9,117,40,100,106,24,61,51,103,66,114,67,93,5,50,4,25,85,64,75,101,29,39,41,68,78,70,105,90,107,82,34,91,8,58,56,35,73,59,16,83,22,13,23
land,91935,null,null,,103,,1,,,,,,,,,,,,,,,,,,,,,,,,,,,,,,,,,,,,,,,,,,,,,,,,,,,
dig,93939,,,,,[],1,,,,,,,,,,,,,,,,,,,,,,,,,,,,,,,,,,,,,,,,,,,,,,,,,,,
harvest,95441,null,null,,23,,1,,,,,,103,0.222272347,0.223300971,,,,,,,,,,,,,,,,,,,,,,,,,,,,,,,,,,,,,,,,,,,
decision,95484,40.69999999,65,,23,,1,,,,,,,,,9064,1,0,FALSE,,,,,,,,,,,,,,,,,,,,,,,,,,,,,,,,,,,,,,,
dig,97450,,,,,[],1,,,,,,,,,,,,,,,,,,,,,,,,,,,,,,,,,,,,,,,,,,,,,,,,,,,
harvest,99029,null,null,,5,,1,,,,,,23,0.217724985,0.217391304,,,,,,,,,,,,,,,,,,,,,,,,,,,,,,,,,,,,,,,,,,,
decision,99033,3.899999976,65,,5,,1,,,,,,,,,12613,1,1,FALSE,,,,,,,,,,,,,,,,,,,,,,,,,,,,,,,,,,,,,,,
dig,101033,,,,,[],1,,,,,,,,,,,,,,,,,,,,,,,,,,,,,,,,,,,,,,,,,,,,,,,,,,,
harvest,102540,null,null,,1,,1,,,,,,5,0.189141515,0.2,,,,,,,,,,,,,,,,,,,,,,,,,,,,,,,,,,,,,,,,,,,
decision,103005,463.7,76,,1,,1,,,,,,,,,16585,1,2,TRUE,,,,,,,,,,,,,,,,,,,,,,,,,,,,,,,,,,,,,,,
travel,112542,,,,,[],1,,,,,,,,,,,,,,,,,,,,,,,,,,,,,,,,,,,,,,,,,,,,,,,,,,,
alien_welcome,117548,null,null,,,,,,,,26,31,76,15,9,117,40,100,106,24,61,51,103,66,114,67,93,5,50,4,25,85,64,75,101,29,39,41,68,78,70,105,90,107,82,34,91,8,58,56,35,73,59,16,83,22,13,23
land,118055,null,null,,103,,2,,,,,,,,,,,,,,,,,,,,,,,,,,,,,,,,,,,,,,,,,,,,,,,,,,,
dig,120060,,,,,[],2,,,,,,,,,,,,,,,,,,,,,,,,,,,,,,,,,,,,,,,,,,,,,,,,,,,
harvest,121568,null,null,,19,,2,,,,,,103,0.185892222,0.184466019,,,,,,,,,,,,,,,,,,,,,,,,,,,,,,,,,,,,,,,,,,,
decision,121646,75.80000001,65,,19,,2,,,,,,,,,35225,1,0,FALSE,,,,,,,,,,,,,,,,,,,,,,,,,,,,,,,,,,,,,,,
dig,123575,,,,,[],2,,,,,,,,,,,,,,,,,,,,,,,,,,,,,,,,,,,,,,,,,,,,,,,,,,,
harvest,125081,null,null,,4,,2,,,,,,19,0.230059104,0.210526316,,,,,,,,,,,,,,,,,,,,,,,,,,,,,,,,,,,,,,,,,,,
decision,125430,347.1,76,,4,,2,,,,,,,,,39009,1,1,TRUE,,,,,,,,,,,,,,,,,,,,,,,,,,,,,,,,,,,,,,,
travel,135083,,,,,[],2,,,,,,,,,,,,,,,,,,,,,,,,,,,,,,,,,,,,,,,,,,,,,,,,,,,
alien_welcome,140090,null,null,,,,,,,,84,31,76,15,9,117,40,100,106,24,61,51,103,66,114,67,93,5,50,4,25,85,64,75,101,29,39,41,68,78,70,105,90,107,82,34,91,8,58,56,35,73,59,16,83,22,13,23
land,140596,null,null,,104,,3,,,,,,,,,,,,,,,,,,,,,,,,,,,,,,,,,,,,,,,,,,,,,,,,,,,
dig,142602,,,,,[],3,,,,,,,,,,,,,,,,,,,,,,,,,,,,,,,,,,,,,,,,,,,,,,,,,,,
harvest,144186,null,null,,47,,3,,,,,,104,0.451037069,0.451923077,,,,,,,,,,,,,,,,,,,,,,,,,,,,,,,,,,,,,,,,,,,
decision,144383,195.9,65,,47,,3,,,,,,,,,57963,1,0,FALSE,,,,,,,,,,,,,,,,,,,,,,,,,,,,,,,,,,,,,,,
dig,146192,,,,,[],3,,,,,,,,,,,,,,,,,,,,,,,,,,,,,,,,,,,,,,,,,,,,,,,,,,,
harvest,147702,null,null,,23,,3,,,,,,47,0.491062451,0.489361702,,,,,,,,,,,,,,,,,,,,,,,,,,,,,,,,,,,,,,,,,,,
decision,147799,96.19999999,65,,23,,3,,,,,,,,,61379,1,1,FALSE,,,,,,,,,,,,,,,,,,,,,,,,,,,,,,,,,,,,,,,
dig,149711,,,,,[],3,,,,,,,,,,,,,,,,,,,,,,,,,,,,,,,,,,,,,,,,,,,,,,,,,,,
harvest,151216,null,null,,11,,3,,,,,,23,0.497188783,0.47826087,,,,,,,,,,,,,,,,,,,,,,,,,,,,,,,,,,,,,,,,,,,
decision,151398,181.1,65,,11,,3,,,,,,,,,64978,1,2,FALSE,,,,,,,,,,,,,,,,,,,,,,,,,,,,,,,,,,,,,,,
dig,153222,,,,,[],3,,,,,,,,,,,,,,,,,,,,,,,,,,,,,,,,,,,,,,,,,,,,,,,,,,,
harvest,154728,null,null,,5,,3,,,,,,11,0.499887772,0.454545455,,,,,,,,,,,,,,,,,,,,,,,,,,,,,,,,,,,,,,,,,,,
decision,155047,317.7,76,,5,,3,,,,,,,,,68627,1,3,TRUE,,,,,,,,,,,,,,,,,,,,,,,,,,,,,,,,,,,,,,,
travel,164728,,,,,[],3,,,,,,,,,,,,,,,,,,,,,,,,,,,,,,,,,,,,,,,,,,,,,,,,,,,
alien_welcome,169730,null,null,,,,,,,,92,31,76,15,9,117,40,100,106,24,61,51,103,66,114,67,93,5,50,4,25,85,64,75,101,29,39,41,68,78,70,105,90,107,82,34,91,8,58,56,35,73,59,16,83,22,13,23
land,170245,null,null,,101,,4,,,,,,,,,,,,,,,,,,,,,,,,,,,,,,,,,,,,,,,,,,,,,,,,,,,
dig,172250,,,,,[],4,,,,,,,,,,,,,,,,,,,,,,,,,,,,,,,,,,,,,,,,,,,,,,,,,,,
harvest,173758,null,null,,51,,4,,,,,,101,0.50938906,0.504950495,,,,,,,,,,,,,,,,,,,,,,,,,,,,,,,,,,,,,,,,,,,
decision,173879,120.3,65,,51,,4,,,,,,,,,87458,1,0,FALSE,,,,,,,,,,,,,,,,,,,,,,,,,,,,,,,,,,,,,,,
dig,175762,,,,,[],4,,,,,,,,,,,,,,,,,,,,,,,,,,,,,,,,,,,,,,,,,,,,,,,,,,,
harvest,177268,null,null,,24,,4,,,,,,51,0.473836483,0.470588235,,,,,,,,,,,,,,,,,,,,,,,,,,,,,,,,,,,,,,,,,,,
decision,177327,58.19999999,65,,24,,4,,,,,,,,,90907,1,1,FALSE,,,,,,,,,,,,,,,,,,,,,,,,,,,,,,,,,,,,,,,
dig,179274,,,,,[],4,,,,,,,,,,,,,,,,,,,,,,,,,,,,,,,,,,,,,,,,,,,,,,,,,,,
harvest,180775,null,null,,13,,4,,,,,,24,0.540280893,0.541666667,,,,,,,,,,,,,,,,,,,,,,,,,,,,,,,,,,,,,,,,,,,
decision,182297,1520.6,76,,13,,4,,,,,,,,,95877,1,2,TRUE,,,,,,,,,,,,,,,,,,,,,,,,,,,,,,,,,,,,,,,
travel,190782,,,,,[],4,,,,,,,,,,,,,,,,,,,,,,,,,,,,,,,,,,,,,,,,,,,,,,,,,,,
alien_welcome,195790,null,null,,,,,,,,36,31,76,15,9,117,40,100,106,24,61,51,103,66,114,67,93,5,50,4,25,85,64,75,101,29,39,41,68,78,70,105,90,107,82,34,91,8,58,56,35,73,59,16,83,22,13,23
land,196297,null,null,,94,,5,,,,,,,,,,,,,,,,,,,,,,,,,,,,,,,,,,,,,,,,,,,,,,,,,,,
dig,198302,,,,,[],5,,,,,,,,,,,,,,,,,,,,,,,,,,,,,,,,,,,,,,,,,,,,,,,,,,,
harvest,199807,null,null,,45,,5,,,,,,94,0.474240224,0.478723404,,,,,,,,,,,,,,,,,,,,,,,,,,,,,,,,,,,,,,,,,,,
decision,199884,74.5,65,,45,,5,,,,,,,,,113463,1,0,FALSE,,,,,,,,,,,,,,,,,,,,,,,,,,,,,,,,,,,,,,,
dig,201813,,,,,[],5,,,,,,,,,,,,,,,,,,,,,,,,,,,,,,,,,,,,,,,,,,,,,,,,,,,
harvest,203320,null,null,,19,,5,,,,,,45,0.428052773,0.422222222,,,,,,,,,,,,,,,,,,,,,,,,,,,,,,,,,,,,,,,,,,,
decision,203457,135.2,76,,19,,5,,,,,,,,,117036,1,1,TRUE,,,,,,,,,,,,,,,,,,,,,,,,,,,,,,,,,,,,,,,
travel,213327,,,,,[],5,,,,,,,,,,,,,,,,,,,,,,,,,,,,,,,,,,,,,,,,,,,,,,,,,,,
alien_welcome,218334,null,null,,,,,,,,120,31,76,15,9,117,40,100,106,24,61,51,103,66,114,67,93,5,50,4,25,85,64,75,101,29,39,41,68,78,70,105,90,107,82,34,91,8,58,56,35,73,59,16,83,22,13,23
land,218846,null,null,,100,,6,,,,,,,,,,,,,,,,,,,,,,,,,,,,,,,,,,,,,,,,,,,,,,,,,,,
dig,220851,,,,,[],6,,,,,,,,,,,,,,,,,,,,,,,,,,,,,,,,,,,,,,,,,,,,,,,,,,,
harvest,222356,null,null,,83,,6,,,,,,100,0.831295237,0.83,,,,,,,,,,,,,,,,,,,,,,,,,,,,,,,,,,,,,,,,,,,
decision,223376,1019,65,,83,,6,,,,,,,,,136956,1,0,FALSE,,,,,,,,,,,,,,,,,,,,,,,,,,,,,,,,,,,,,,,
dig,224365,,,,,[],6,,,,,,,,,,,,,,,,,,,,,,,,,,,,,,,,,,,,,,,,,,,,,,,,,,,
harvest,225866,null,null,,68,,6,,,,,,83,0.816687768,0.819277108,,,,,,,,,,,,,,,,,,,,,,,,,,,,,,,,,,,,,,,,,,,
decision,225919,50.60000002,65,,68,,6,,,,,,,,,139499,1,1,FALSE,,,,,,,,,,,,,,,,,,,,,,,,,,,,,,,,,,,,,,,
dig,227873,,,,,[],6,,,,,,,,,,,,,,,,,,,,,,,,,,,,,,,,,,,,,,,,,,,,,,,,,,,
harvest,229391,null,null,,55,,6,,,,,,68,0.80772327,0.808823529,,,,,,,,,,,,,,,,,,,,,,,,,,,,,,,,,,,,,,,,,,,
decision,229394,1.900000036,65,,55,,6,,,,,,,,,142974,1,2,FALSE,,,,,,,,,,,,,,,,,,,,,,,,,,,,,,,,,,,,,,,
dig,231399,,,,,[],6,,,,,,,,,,,,,,,,,,,,,,,,,,,,,,,,,,,,,,,,,,,,,,,,,,,
harvest,232905,null,null,,43,,6,,,,,,55,0.782837308,0.781818182,,,,,,,,,,,,,,,,,,,,,,,,,,,,,,,,,,,,,,,,,,,
decision,233089,182.3,76,,43,,6,,,,,,,,,146668,1,3,TRUE,,,,,,,,,,,,,,,,,,,,,,,,,,,,,,,,,,,,,,,
travel,242904,,,,,[],6,,,,,,,,,,,,,,,,,,,,,,,,,,,,,,,,,,,,,,,,,,,,,,,,,,,
alien_welcome,247913,null,null,,,,,,,,28,31,76,15,9,117,40,100,106,24,61,51,103,66,114,67,93,5,50,4,25,85,64,75,101,29,39,41,68,78,70,105,90,107,82,34,91,8,58,56,35,73,59,16,83,22,13,23
land,248420,null,null,,103,,7,,,,,,,,,,,,,,,,,,,,,,,,,,,,,,,,,,,,,,,,,,,,,,,,,,,
dig,250428,,,,,[],7,,,,,,,,,,,,,,,,,,,,,,,,,,,,,,,,,,,,,,,,,,,,,,,,,,,
harvest,251933,null,null,,86,,7,,,,,,103,0.832143208,0.834951456,,,,,,,,,,,,,,,,,,,,,,,,,,,,,,,,,,,,,,,,,,,
decision,252130,195.4,65,,86,,7,,,,,,,,,165709,1,0,FALSE,,,,,,,,,,,,,,,,,,,,,,,,,,,,,,,,,,,,,,,
dig,253939,,,,,[],7,,,,,,,,,,,,,,,,,,,,,,,,,,,,,,,,,,,,,,,,,,,,,,,,,,,
harvest,255446,null,null,,67,,7,,,,,,86,0.780556456,0.779069767,,,,,,,,,,,,,,,,,,,,,,,,,,,,,,,,,,,,,,,,,,,
decision,255471,24.09999996,65,,67,,7,,,,,,,,,169051,1,1,FALSE,,,,,,,,,,,,,,,,,,,,,,,,,,,,,,,,,,,,,,,
dig,257455,,,,,[],7,,,,,,,,,,,,,,,,,,,,,,,,,,,,,,,,,,,,,,,,,,,,,,,,,,,
harvest,259071,null,null,,57,,7,,,,,,67,0.850343903,0.850746269,,,,,,,,,,,,,,,,,,,,,,,,,,,,,,,,,,,,,,,,,,,
decision,259074,2.199999988,65,,57,,7,,,,,,,,,172654,1,2,FALSE,,,,,,,,,,,,,,,,,,,,,,,,,,,,,,,,,,,,,,,
dig,261075,,,,,[],7,,,,,,,,,,,,,,,,,,,,,,,,,,,,,,,,,,,,,,,,,,,,,,,,,,,
harvest,262582,null,null,,46,,7,,,,,,57,0.809889064,0.807017544,,,,,,,,,,,,,,,,,,,,,,,,,,,,,,,,,,,,,,,,,,,
decision,262777,193.8,76,,46,,7,,,,,,,,,176357,1,3,TRUE,,,,,,,,,,,,,,,,,,,,,,,,,,,,,,,,,,,,,,,
travel,272584,,,,,[],7,,,,,,,,,,,,,,,,,,,,,,,,,,,,,,,,,,,,,,,,,,,,,,,,,,,
alien_welcome,277591,null,null,,,,,,,,32,31,76,15,9,117,40,100,106,24,61,51,103,66,114,67,93,5,50,4,25,85,64,75,101,29,39,41,68,78,70,105,90,107,82,34,91,8,58,56,35,73,59,16,83,22,13,23
land,278098,null,null,,94,,8,,,,,,,,,,,,,,,,,,,,,,,,,,,,,,,,,,,,,,,,,,,,,,,,,,,
dig,280102,,,,,[],8,,,,,,,,,,,,,,,,,,,,,,,,,,,,,,,,,,,,,,,,,,,,,,,,,,,
harvest,281608,null,null,,72,,8,,,,,,94,0.769514635,0.765957447,,,,,,,,,,,,,,,,,,,,,,,,,,,,,,,,,,,,,,,,,,,
decision,282234,624.7,76,,72,,8,,,,,,,,,195813,1,0,TRUE,,,,,,,,,,,,,,,,,,,,,,,,,,,,,,,,,,,,,,,
travel,291609,,,,,[],8,,,,,,,,,,,,,,,,,,,,,,,,,,,,,,,,,,,,,,,,,,,,,,,,,,,
alien_welcome,296618,null,null,,,,,,,,115,31,76,15,9,117,40,100,106,24,61,51,103,66,114,67,93,5,50,4,25,85,64,75,101,29,39,41,68,78,70,105,90,107,82,34,91,8,58,56,35,73,59,16,83,22,13,23
land,297124,null,null,,106,,9,,,,,,,,,,,,,,,,,,,,,,,,,,,,,,,,,,,,,,,,,,,,,,,,,,,
dig,299347,,,,,[],9,,,,,,,,,,,,,,,,,,,,,,,,,,,,,,,,,,,,,,,,,,,,,,,,,,,
harvest,300856,null,null,,18,,9,,,,,,106,0.173904968,0.169811321,,,,,,,,,,,,,,,,,,,,,,,,,,,,,,,,,,,,,,,,,,,
decision,300918,60.60000002,65,,18,,9,,,,,,,,,214498,1,0,FALSE,,,,,,,,,,,,,,,,,,,,,,,,,,,,,,,,,,,,,,,
dig,302866,,,,,[],9,,,,,,,,,,,,,,,,,,,,,,,,,,,,,,,,,,,,,,,,,,,,,,,,,,,
harvest,304372,null,null,,4,,9,,,,,,18,0.195029283,0.222222222,,,,,,,,,,,,,,,,,,,,,,,,,,,,,,,,,,,,,,,,,,,
decision,304839,464.9,76,,4,,9,,,,,,,,,218420,1,1,TRUE,,,,,,,,,,,,,,,,,,,,,,,,,,,,,,,,,,,,,,,
travel,314376,,,,,[],9,,,,,,,,,,,,,,,,,,,,,,,,,,,,,,,,,,,,,,,,,,,,,,,,,,,
alien_welcome,319482,null,null,,,,,,,,74,31,76,15,9,117,40,100,106,24,61,51,103,66,114,67,93,5,50,4,25,85,64,75,101,29,39,41,68,78,70,105,90,107,82,34,91,8,58,56,35,73,59,16,83,22,13,23
land,319987,null,null,,103,,10,,,,,,,,,,,,,,,,,,,,,,,,,,,,,,,,,,,,,,,,,,,,,,,,,,,
dig,321991,,,,,[],10,,,,,,,,,,,,,,,,,,,,,,,,,,,,,,,,,,,,,,,,,,,,,,,,,,,
harvest,323496,null,null,,20,,10,,,,,,103,0.197779851,0.194174757,,,,,,,,,,,,,,,,,,,,,,,,,,,,,,,,,,,,,,,,,,,
decision,323604,107.2,65,,20,,10,,,,,,,,,237183,1,0,FALSE,,,,,,,,,,,,,,,,,,,,,,,,,,,,,,,,,,,,,,,
dig,325499,,,,,[],10,,,,,,,,,,,,,,,,,,,,,,,,,,,,,,,,,,,,,,,,,,,,,,,,,,,
harvest,327004,null,null,,4,,10,,,,,,20,0.19171321,0.2,,,,,,,,,,,,,,,,,,,,,,,,,,,,,,,,,,,,,,,,,,,
decision,327440,434.6,76,,4,,10,,,,,,,,,241020,1,1,TRUE,,,,,,,,,,,,,,,,,,,,,,,,,,,,,,,,,,,,,,,
travel,337004,,,,,[],10,,,,,,,,,,,,,,,,,,,,,,,,,,,,,,,,,,,,,,,,,,,,,,,,,,,
alien_welcome,342011,null,null,,,,,,,,57,31,76,15,9,117,40,100,106,24,61,51,103,66,114,67,93,5,50,4,25,85,64,75,101,29,39,41,68,78,70,105,90,107,82,34,91,8,58,56,35,73,59,16,83,22,13,23
land,342513,null,null,,100,,11,,,,,,,,,,,,,,,,,,,,,,,,,,,,,,,,,,,,,,,,,,,,,,,,,,,
dig,344517,,,,,[],11,,,,,,,,,,,,,,,,,,,,,,,,,,,,,,,,,,,,,,,,,,,,,,,,,,,
harvest,346026,null,null,,18,,11,,,,,,100,0.181096503,0.18,,,,,,,,,,,,,,,,,,,,,,,,,,,,,,,,,,,,,,,,,,,
decision,346100,72.69999999,65,,18,,11,,,,,,,,,259679,1,0,FALSE,,,,,,,,,,,,,,,,,,,,,,,,,,,,,,,,,,,,,,,
dig,348031,,,,,[],11,,,,,,,,,,,,,,,,,,,,,,,,,,,,,,,,,,,,,,,,,,,,,,,,,,,
harvest,349537,null,null,,3,,11,,,,,,18,0.177700675,0.166666667,,,,,,,,,,,,,,,,,,,,,,,,,,,,,,,,,,,,,,,,,,,
decision,351538,null,null,,3,,11,,,,,,,,,265118,1,1,FALSE,,,,,,,,,,,,,,,,,,,,,,,,,,,,,,,,,,,,,,,
time_out,353547,null,null,,3,,,,,,,,,,,,,,,,,,,,,,,,,,,,,,,,,,,,,,,,,,,,,,,,,,,,,
decision,354751,1203.5,76,,3,,11,,,,,,,,,268331,1,1,TRUE,,,,,,,,,,,,,,,,,,,,,,,,,,,,,,,,,,,,,,,
travel,363552,,,,,[],11,,,,,,,,,,,,,,,,,,,,,,,,,,,,,,,,,,,,,,,,,,,,,,,,,,,
alien_welcome,368559,null,null,,,,,,,,116,31,76,15,9,117,40,100,106,24,61,51,103,66,114,67,93,5,50,4,25,85,64,75,101,29,39,41,68,78,70,105,90,107,82,34,91,8,58,56,35,73,59,16,83,22,13,23
land,369070,null,null,,101,,12,,,,,,,,,,,,,,,,,,,,,,,,,,,,,,,,,,,,,,,,,,,,,,,,,,,
dig,371076,,,,,[],12,,,,,,,,,,,,,,,,,,,,,,,,,,,,,,,,,,,,,,,,,,,,,,,,,,,
harvest,372585,null,null,,20,,12,,,,,,101,0.199125876,0.198019802,,,,,,,,,,,,,,,,,,,,,,,,,,,,,,,,,,,,,,,,,,,
decision,372742,155.8,65,,20,,12,,,,,,,,,286321,1,0,FALSE,,,,,,,,,,,,,,,,,,,,,,,,,,,,,,,,,,,,,,,
dig,374589,,,,,[],12,,,,,,,,,,,,,,,,,,,,,,,,,,,,,,,,,,,,,,,,,,,,,,,,,,,
harvest,376095,null,null,,3,,12,,,,,,20,0.151757055,0.15,,,,,,,,,,,,,,,,,,,,,,,,,,,,,,,,,,,,,,,,,,,
decision,376253,156.9,76,,3,,12,,,,,,,,,289833,1,1,TRUE,,,,,,,,,,,,,,,,,,,,,,,,,,,,,,,,,,,,,,,
travel,386095,,,,,[],12,,,,,,,,,,,,,,,,,,,,,,,,,,,,,,,,,,,,,,,,,,,,,,,,,,,
alien_welcome,391104,null,null,,,,,,,,52,31,76,15,9,117,40,100,106,24,61,51,103,66,114,67,93,5,50,4,25,85,64,75,101,29,39,41,68,78,70,105,90,107,82,34,91,8,58,56,35,73,59,16,83,22,13,23
land,391611,null,null,,92,,13,,,,,,,,,,,,,,,,,,,,,,,,,,,,,,,,,,,,,,,,,,,,,,,,,,,
dig,393615,,,,,[],13,,,,,,,,,,,,,,,,,,,,,,,,,,,,,,,,,,,,,,,,,,,,,,,,,,,
harvest,395120,null,null,,19,,13,,,,,,92,0.20566947,0.206521739,,,,,,,,,,,,,,,,,,,,,,,,,,,,,,,,,,,,,,,,,,,
decision,395197,75.89999998,76,,19,,13,,,,,,,,,308777,1,0,TRUE,,,,,,,,,,,,,,,,,,,,,,,,,,,,,,,,,,,,,,,
travel,405125,,,,,[],13,,,,,,,,,,,,,,,,,,,,,,,,,,,,,,,,,,,,,,,,,,,,,,,,,,,
alien_welcome,410133,null,null,,,,,,,,110,31,76,15,9,117,40,100,106,24,61,51,103,66,114,67,93,5,50,4,25,85,64,75,101,29,39,41,68,78,70,105,90,107,82,34,91,8,58,56,35,73,59,16,83,22,13,23
land,410638,null,null,,92,,14,,,,,,,,,,,,,,,,,,,,,,,,,,,,,,,,,,,,,,,,,,,,,,,,,,,
dig,412642,,,,,[],14,,,,,,,,,,,,,,,,,,,,,,,,,,,,,,,,,,,,,,,,,,,,,,,,,,,
harvest,414148,null,null,,81,,14,,,,,,92,0.877414811,0.880434783,,,,,,,,,,,,,,,,,,,,,,,,,,,,,,,,,,,,,,,,,,,
decision,414320,170.3,65,,81,,14,,,,,,,,,327899,1,0,FALSE,,,,,,,,,,,,,,,,,,,,,,,,,,,,,,,,,,,,,,,
dig,416154,,,,,[],14,,,,,,,,,,,,,,,,,,,,,,,,,,,,,,,,,,,,,,,,,,,,,,,,,,,
harvest,417662,null,null,,67,,14,,,,,,81,0.825444943,0.827160494,,,,,,,,,,,,,,,,,,,,,,,,,,,,,,,,,,,,,,,,,,,
decision,417999,336.4,76,,67,,14,,,,,,,,,331579,1,1,TRUE,,,,,,,,,,,,,,,,,,,,,,,,,,,,,,,,,,,,,,,
travel,427663,,,,,[],14,,,,,,,,,,,,,,,,,,,,,,,,,,,,,,,,,,,,,,,,,,,,,,,,,,,
alien_welcome,432673,null,null,,,,,,,,54,31,76,15,9,117,40,100,106,24,61,51,103,66,114,67,93,5,50,4,25,85,64,75,101,29,39,41,68,78,70,105,90,107,82,34,91,8,58,56,35,73,59,16,83,22,13,23
land,433181,null,null,,104,,15,,,,,,,,,,,,,,,,,,,,,,,,,,,,,,,,,,,,,,,,,,,,,,,,,,,
dig,435186,,,,,[],15,,,,,,,,,,,,,,,,,,,,,,,,,,,,,,,,,,,,,,,,,,,,,,,,,,,
harvest,436694,null,null,,81,,15,,,,,,104,0.782864733,0.778846154,,,,,,,,,,,,,,,,,,,,,,,,,,,,,,,,,,,,,,,,,,,
decision,436697,2.299999952,65,,81,,15,,,,,,,,,350277,1,0,FALSE,,,,,,,,,,,,,,,,,,,,,,,,,,,,,,,,,,,,,,,
dig,438698,,,,,[],15,,,,,,,,,,,,,,,,,,,,,,,,,,,,,,,,,,,,,,,,,,,,,,,,,,,
harvest,440204,null,null,,61,,15,,,,,,81,0.750219553,0.75308642,,,,,,,,,,,,,,,,,,,,,,,,,,,,,,,,,,,,,,,,,,,
decision,440497,291.6,76,,61,,15,,,,,,,,,354077,1,1,TRUE,,,,,,,,,,,,,,,,,,,,,,,,,,,,,,,,,,,,,,,
travel,450207,,,,,[],15,,,,,,,,,,,,,,,,,,,,,,,,,,,,,,,,,,,,,,,,,,,,,,,,,,,
alien_welcome,455218,null,null,,,,,,,,109,31,76,15,9,117,40,100,106,24,61,51,103,66,114,67,93,5,50,4,25,85,64,75,101,29,39,41,68,78,70,105,90,107,82,34,91,8,58,56,35,73,59,16,83,22,13,23
land,455723,null,null,,109,,16,,,,,,,,,,,,,,,,,,,,,,,,,,,,,,,,,,,,,,,,,,,,,,,,,,,
dig,457728,,,,,[],16,,,,,,,,,,,,,,,,,,,,,,,,,,,,,,,,,,,,,,,,,,,,,,,,,,,
harvest,459234,null,null,,58,,16,,,,,,109,0.533496953,0.532110092,,,,,,,,,,,,,,,,,,,,,,,,,,,,,,,,,,,,,,,,,,,
decision,459332,96.89999998,65,,58,,16,,,,,,,,,372912,1,0,TRUE,,,,,,,,,,,,,,,,,,,,,,,,,,,,,,,,,,,,,,,
catch,463633,4297.2,90,,58,,,,,,,,,,,,,,,,,,,,,,,,,,,,,,,,,,,,,,,,,,,,,,,,,,,,,
end_of_block,466033,2398.5,32,,,,,,,,,,,,,,,,,,,,,,,,,,,,,,,,,,,,,,,,,,,,,,,,,,,,,,,
alien_welcome,471056,null,null,,,,,,,,87,31,76,15,9,117,40,100,106,24,61,51,103,66,114,67,93,5,50,4,25,85,64,75,101,29,39,41,68,78,70,105,90,107,82,34,91,8,58,56,35,73,59,16,83,22,13,23
land,471561,null,null,,107,,17,,,,,,,,,,,,,,,,,,,,,,,,,,,,,,,,,,,,,,,,,,,,,,,,,,,
dig,473565,,,,,[],17,,,,,,,,,,,,,,,,,,,,,,,,,,,,,,,,,,,,,,,,,,,,,,,,,,,
harvest,475070,null,null,,20,,17,,,,,,107,0.182846335,0.186915888,,,,,,,,,,,,,,,,,,,,,,,,,,,,,,,,,,,,,,,,,,,
decision,475168,97.30000001,65,,20,,17,,,,,,,,,9134,2,0,FALSE,,,,,,,,,,,,,,,,,,,,,,,,,,,,,,,,,,,,,,,
dig,477077,,,,,[],17,,,,,,,,,,,,,,,,,,,,,,,,,,,,,,,,,,,,,,,,,,,,,,,,,,,
harvest,478586,null,null,,5,,17,,,,,,20,0.249566183,0.25,,,,,,,,,,,,,,,,,,,,,,,,,,,,,,,,,,,,,,,,,,,
decision,478881,292,76,,5,,17,,,,,,,,,12848,2,1,TRUE,,,,,,,,,,,,,,,,,,,,,,,,,,,,,,,,,,,,,,,
travel,488591,,,,,[],17,,,,,,,,,,,,,,,,,,,,,,,,,,,,,,,,,,,,,,,,,,,,,,,,,,,
alien_welcome,493598,null,null,,,,,,,,1,31,76,15,9,117,40,100,106,24,61,51,103,66,114,67,93,5,50,4,25,85,64,75,101,29,39,41,68,78,70,105,90,107,82,34,91,8,58,56,35,73,59,16,83,22,13,23
land,494102,null,null,,96,,18,,,,,,,,,,,,,,,,,,,,,,,,,,,,,,,,,,,,,,,,,,,,,,,,,,,
dig,496107,,,,,[],18,,,,,,,,,,,,,,,,,,,,,,,,,,,,,,,,,,,,,,,,,,,,,,,,,,,
harvest,497613,null,null,,19,,18,,,,,,96,0.196095234,0.197916667,,,,,,,,,,,,,,,,,,,,,,,,,,,,,,,,,,,,,,,,,,,
decision,497913,297.5,76,,19,,18,,,,,,,,,31879,2,0,TRUE,,,,,,,,,,,,,,,,,,,,,,,,,,,,,,,,,,,,,,,
travel,507625,,,,,[],18,,,,,,,,,,,,,,,,,,,,,,,,,,,,,,,,,,,,,,,,,,,,,,,,,,,
alien_welcome,512627,null,null,,,,,,,,89,31,76,15,9,117,40,100,106,24,61,51,103,66,114,67,93,5,50,4,25,85,64,75,101,29,39,41,68,78,70,105,90,107,82,34,91,8,58,56,35,73,59,16,83,22,13,23
land,513129,null,null,,98,,19,,,,,,,,,,,,,,,,,,,,,,,,,,,,,,,,,,,,,,,,,,,,,,,,,,,
dig,515134,,,,,[],19,,,,,,,,,,,,,,,,,,,,,,,,,,,,,,,,,,,,,,,,,,,,,,,,,,,
harvest,516642,null,null,,23,,19,,,,,,98,0.231459047,0.234693878,,,,,,,,,,,,,,,,,,,,,,,,,,,,,,,,,,,,,,,,,,,
decision,516644,1.300000012,65,,23,,19,,,,,,,,,50609,2,0,FALSE,,,,,,,,,,,,,,,,,,,,,,,,,,,,,,,,,,,,,,,
dig,518648,,,,,[],19,,,,,,,,,,,,,,,,,,,,,,,,,,,,,,,,,,,,,,,,,,,,,,,,,,,
harvest,520154,null,null,,7,,19,,,,,,23,0.301033582,0.304347826,,,,,,,,,,,,,,,,,,,,,,,,,,,,,,,,,,,,,,,,,,,
decision,521330,1174.6,76,,7,,19,,,,,,,,,55295,2,1,TRUE,,,,,,,,,,,,,,,,,,,,,,,,,,,,,,,,,,,,,,,
travel,530156,,,,,[],19,,,,,,,,,,,,,,,,,,,,,,,,,,,,,,,,,,,,,,,,,,,,,,,,,,,
alien_welcome,535166,null,null,,,,,,,,55,31,76,15,9,117,40,100,106,24,61,51,103,66,114,67,93,5,50,4,25,85,64,75,101,29,39,41,68,78,70,105,90,107,82,34,91,8,58,56,35,73,59,16,83,22,13,23
land,535670,null,null,,96,,20,,,,,,,,,,,,,,,,,,,,,,,,,,,,,,,,,,,,,,,,,,,,,,,,,,,
dig,537675,,,,,[],20,,,,,,,,,,,,,,,,,,,,,,,,,,,,,,,,,,,,,,,,,,,,,,,,,,,
harvest,539431,null,null,,85,,20,,,,,,96,0.884554051,0.885416667,,,,,,,,,,,,,,,,,,,,,,,,,,,,,,,,,,,,,,,,,,,
decision,539604,171.1,76,,85,,20,,,,,,,,,73569,2,0,TRUE,,,,,,,,,,,,,,,,,,,,,,,,,,,,,,,,,,,,,,,
travel,549438,,,,,[],20,,,,,,,,,,,,,,,,,,,,,,,,,,,,,,,,,,,,,,,,,,,,,,,,,,,
alien_welcome,554442,null,null,,,,,,,,77,31,76,15,9,117,40,100,106,24,61,51,103,66,114,67,93,5,50,4,25,85,64,75,101,29,39,41,68,78,70,105,90,107,82,34,91,8,58,56,35,73,59,16,83,22,13,23
land,554949,null,null,,98,,21,,,,,,,,,,,,,,,,,,,,,,,,,,,,,,,,,,,,,,,,,,,,,,,,,,,
dig,556973,,,,,[],21,,,,,,,,,,,,,,,,,,,,,,,,,,,,,,,,,,,,,,,,,,,,,,,,,,,
harvest,558483,null,null,,75,,21,,,,,,98,0.76641591,0.765306122,,,,,,,,,,,,,,,,,,,,,,,,,,,,,,,,,,,,,,,,,,,
decision,558490,5.699999988,65,,75,,21,,,,,,,,,92456,2,0,FALSE,,,,,,,,,,,,,,,,,,,,,,,,,,,,,,,,,,,,,,,
dig,560487,,,,,[],21,,,,,,,,,,,,,,,,,,,,,,,,,,,,,,,,,,,,,,,,,,,,,,,,,,,
harvest,561993,null,null,,64,,21,,,,,,75,0.856397801,0.853333333,,,,,,,,,,,,,,,,,,,,,,,,,,,,,,,,,,,,,,,,,,,
decision,563996,null,null,,64,,21,,,,,,,,,97961,2,1,FALSE,,,,,,,,,,,,,,,,,,,,,,,,,,,,,,,,,,,,,,,
time_out,566003,null,null,,64,,,,,,,,,,,,,,,,,,,,,,,,,,,,,,,,,,,,,,,,,,,,,,,,,,,,,
decision,568005,null,null,,64,,21,,,,,,,,,101971,2,1,FALSE,,,,,,,,,,,,,,,,,,,,,,,,,,,,,,,,,,,,,,,
time_out,570015,null,null,,64,,,,,,,,,,,,,,,,,,,,,,,,,,,,,,,,,,,,,,,,,,,,,,,,,,,,,
decision,570539,521.8,76,,64,,21,,,,,,,,,104505,2,1,TRUE,,,,,,,,,,,,,,,,,,,,,,,,,,,,,,,,,,,,,,,
travel,580023,,,,,[],21,,,,,,,,,,,,,,,,,,,,,,,,,,,,,,,,,,,,,,,,,,,,,,,,,,,
alien_welcome,585030,null,null,,,,,,,,97,31,76,15,9,117,40,100,106,24,61,51,103,66,114,67,93,5,50,4,25,85,64,75,101,29,39,41,68,78,70,105,90,107,82,34,91,8,58,56,35,73,59,16,83,22,13,23
land,585535,null,null,,106,,22,,,,,,,,,,,,,,,,,,,,,,,,,,,,,,,,,,,,,,,,,,,,,,,,,,,
dig,587539,,,,,[],22,,,,,,,,,,,,,,,,,,,,,,,,,,,,,,,,,,,,,,,,,,,,,,,,,,,
harvest,589045,null,null,,86,,22,,,,,,106,0.808279492,0.811320755,,,,,,,,,,,,,,,,,,,,,,,,,,,,,,,,,,,,,,,,,,,
decision,591047,null,null,,86,,22,,,,,,,,,125012,2,0,FALSE,,,,,,,,,,,,,,,,,,,,,,,,,,,,,,,,,,,,,,,
time_out,593056,null,null,,86,,,,,,,,,,,,,,,,,,,,,,,,,,,,,,,,,,,,,,,,,,,,,,,,,,,,,
decision,593895,837.3,65,,86,,22,,,,,,,,,127860,2,0,FALSE,,,,,,,,,,,,,,,,,,,,,,,,,,,,,,,,,,,,,,,
dig,595063,,,,,[],22,,,,,,,,,,,,,,,,,,,,,,,,,,,,,,,,,,,,,,,,,,,,,,,,,,,
harvest,596568,null,null,,68,,22,,,,,,86,0.795508414,0.790697674,,,,,,,,,,,,,,,,,,,,,,,,,,,,,,,,,,,,,,,,,,,
decision,597845,1276.1,76,,68,,22,,,,,,,,,131810,2,1,TRUE,,,,,,,,,,,,,,,,,,,,,,,,,,,,,,,,,,,,,,,
travel,606573,,,,,[],22,,,,,,,,,,,,,,,,,,,,,,,,,,,,,,,,,,,,,,,,,,,,,,,,,,,
alien_welcome,611575,null,null,,,,,,,,81,31,76,15,9,117,40,100,106,24,61,51,103,66,114,67,93,5,50,4,25,85,64,75,101,29,39,41,68,78,70,105,90,107,82,34,91,8,58,56,35,73,59,16,83,22,13,23
land,612082,null,null,,91,,23,,,,,,,,,,,,,,,,,,,,,,,,,,,,,,,,,,,,,,,,,,,,,,,,,,,
dig,614086,,,,,[],23,,,,,,,,,,,,,,,,,,,,,,,,,,,,,,,,,,,,,,,,,,,,,,,,,,,
harvest,615591,null,null,,77,,23,,,,,,91,0.848599065,0.846153846,,,,,,,,,,,,,,,,,,,,,,,,,,,,,,,,,,,,,,,,,,,
decision,616653,1061,76,,77,,23,,,,,,,,,150619,2,0,TRUE,,,,,,,,,,,,,,,,,,,,,,,,,,,,,,,,,,,,,,,
travel,625598,,,,,[],23,,,,,,,,,,,,,,,,,,,,,,,,,,,,,,,,,,,,,,,,,,,,,,,,,,,
alien_welcome,630604,null,null,,,,,,,,27,31,76,15,9,117,40,100,106,24,61,51,103,66,114,67,93,5,50,4,25,85,64,75,101,29,39,41,68,78,70,105,90,107,82,34,91,8,58,56,35,73,59,16,83,22,13,23
land,631111,null,null,,104,,24,,,,,,,,,,,,,,,,,,,,,,,,,,,,,,,,,,,,,,,,,,,,,,,,,,,
dig,633116,,,,,[],24,,,,,,,,,,,,,,,,,,,,,,,,,,,,,,,,,,,,,,,,,,,,,,,,,,,
harvest,634624,null,null,,92,,24,,,,,,104,0.888564559,0.884615385,,,,,,,,,,,,,,,,,,,,,,,,,,,,,,,,,,,,,,,,,,,
decision,636626,null,null,,92,,24,,,,,,,,,170592,2,0,FALSE,,,,,,,,,,,,,,,,,,,,,,,,,,,,,,,,,,,,,,,
time_out,638636,null,null,,92,,,,,,,,,,,,,,,,,,,,,,,,,,,,,,,,,,,,,,,,,,,,,,,,,,,,,
decision,639143,505.5,76,,92,,24,,,,,,,,,173108,2,0,TRUE,,,,,,,,,,,,,,,,,,,,,,,,,,,,,,,,,,,,,,,
travel,648635,,,,,[],24,,,,,,,,,,,,,,,,,,,,,,,,,,,,,,,,,,,,,,,,,,,,,,,,,,,
alien_welcome,653643,null,null,,,,,,,,7,31,76,15,9,117,40,100,106,24,61,51,103,66,114,67,93,5,50,4,25,85,64,75,101,29,39,41,68,78,70,105,90,107,82,34,91,8,58,56,35,73,59,16,83,22,13,23
land,654145,null,null,,100,,25,,,,,,,,,,,,,,,,,,,,,,,,,,,,,,,,,,,,,,,,,,,,,,,,,,,
dig,656149,,,,,[],25,,,,,,,,,,,,,,,,,,,,,,,,,,,,,,,,,,,,,,,,,,,,,,,,,,,
harvest,657655,null,null,,48,,25,,,,,,100,0.482049577,0.48,,,,,,,,,,,,,,,,,,,,,,,,,,,,,,,,,,,,,,,,,,,
decision,658511,854.8,76,,48,,25,,,,,,,,,192476,2,0,TRUE,,,,,,,,,,,,,,,,,,,,,,,,,,,,,,,,,,,,,,,
travel,667662,,,,,[],25,,,,,,,,,,,,,,,,,,,,,,,,,,,,,,,,,,,,,,,,,,,,,,,,,,,
alien_welcome,672664,null,null,,,,,,,,6,31,76,15,9,117,40,100,106,24,61,51,103,66,114,67,93,5,50,4,25,85,64,75,101,29,39,41,68,78,70,105,90,107,82,34,91,8,58,56,35,73,59,16,83,22,13,23
land,673166,null,null,,93,,26,,,,,,,,,,,,,,,,,,,,,,,,,,,,,,,,,,,,,,,,,,,,,,,,,,,
dig,675170,,,,,[],26,,,,,,,,,,,,,,,,,,,,,,,,,,,,,,,,,,,,,,,,,,,,,,,,,,,
harvest,676676,null,null,,81,,26,,,,,,93,0.872183498,0.870967742,,,,,,,,,,,,,,,,,,,,,,,,,,,,,,,,,,,,,,,,,,,
decision,676950,273.5,76,,81,,26,,,,,,,,,210915,2,0,TRUE,,,,,,,,,,,,,,,,,,,,,,,,,,,,,,,,,,,,,,,
travel,686676,,,,,[],26,,,,,,,,,,,,,,,,,,,,,,,,,,,,,,,,,,,,,,,,,,,,,,,,,,,
alien_welcome,691686,null,null,,,,,,,,96,31,76,15,9,117,40,100,106,24,61,51,103,66,114,67,93,5,50,4,25,85,64,75,101,29,39,41,68,78,70,105,90,107,82,34,91,8,58,56,35,73,59,16,83,22,13,23
land,692192,null,null,,92,,27,,,,,,,,,,,,,,,,,,,,,,,,,,,,,,,,,,,,,,,,,,,,,,,,,,,
dig,694196,,,,,[],27,,,,,,,,,,,,,,,,,,,,,,,,,,,,,,,,,,,,,,,,,,,,,,,,,,,
harvest,695703,null,null,,71,,27,,,,,,92,0.776873897,0.77173913,,,,,,,,,,,,,,,,,,,,,,,,,,,,,,,,,,,,,,,,,,,
decision,695839,135.3,76,,71,,27,,,,,,,,,229805,2,0,TRUE,,,,,,,,,,,,,,,,,,,,,,,,,,,,,,,,,,,,,,,
travel,705709,,,,,[],27,,,,,,,,,,,,,,,,,,,,,,,,,,,,,,,,,,,,,,,,,,,,,,,,,,,
alien_welcome,710715,null,null,,,,,,,,2,31,76,15,9,117,40,100,106,24,61,51,103,66,114,67,93,5,50,4,25,85,64,75,101,29,39,41,68,78,70,105,90,107,82,34,91,8,58,56,35,73,59,16,83,22,13,23
land,711224,null,null,,105,,28,,,,,,,,,,,,,,,,,,,,,,,,,,,,,,,,,,,,,,,,,,,,,,,,,,,
dig,713230,,,,,[],28,,,,,,,,,,,,,,,,,,,,,,,,,,,,,,,,,,,,,,,,,,,,,,,,,,,
harvest,714743,null,null,,18,,28,,,,,,105,0.173633059,0.171428571,,,,,,,,,,,,,,,,,,,,,,,,,,,,,,,,,,,,,,,,,,,
decision,715023,278.4,76,,18,,28,,,,,,,,,248989,2,0,TRUE,,,,,,,,,,,,,,,,,,,,,,,,,,,,,,,,,,,,,,,
travel,724750,,,,,[],28,,,,,,,,,,,,,,,,,,,,,,,,,,,,,,,,,,,,,,,,,,,,,,,,,,,
alien_welcome,729757,null,null,,,,,,,,111,31,76,15,9,117,40,100,106,24,61,51,103,66,114,67,93,5,50,4,25,85,64,75,101,29,39,41,68,78,70,105,90,107,82,34,91,8,58,56,35,73,59,16,83,22,13,23
land,730263,null,null,,94,,29,,,,,,,,,,,,,,,,,,,,,,,,,,,,,,,,,,,,,,,,,,,,,,,,,,,
dig,732267,,,,,[],29,,,,,,,,,,,,,,,,,,,,,,,,,,,,,,,,,,,,,,,,,,,,,,,,,,,
harvest,733780,null,null,,13,,29,,,,,,94,0.143162289,0.138297872,,,,,,,,,,,,,,,,,,,,,,,,,,,,,,,,,,,,,,,,,,,
decision,733904,123.3,76,,13,,29,,,,,,,,,267870,2,0,TRUE,,,,,,,,,,,,,,,,,,,,,,,,,,,,,,,,,,,,,,,
travel,743783,,,,,[],29,,,,,,,,,,,,,,,,,,,,,,,,,,,,,,,,,,,,,,,,,,,,,,,,,,,
alien_welcome,748790,null,null,,,,,,,,94,31,76,15,9,117,40,100,106,24,61,51,103,66,114,67,93,5,50,4,25,85,64,75,101,29,39,41,68,78,70,105,90,107,82,34,91,8,58,56,35,73,59,16,83,22,13,23
land,749299,null,null,,101,,30,,,,,,,,,,,,,,,,,,,,,,,,,,,,,,,,,,,,,,,,,,,,,,,,,,,
dig,751305,,,,,[],30,,,,,,,,,,,,,,,,,,,,,,,,,,,,,,,,,,,,,,,,,,,,,,,,,,,
harvest,752811,null,null,,27,,30,,,,,,101,0.268510016,0.267326733,,,,,,,,,,,,,,,,,,,,,,,,,,,,,,,,,,,,,,,,,,,
decision,752897,84.10000002,76,,27,,30,,,,,,,,,286862,2,0,TRUE,,,,,,,,,,,,,,,,,,,,,,,,,,,,,,,,,,,,,,,
travel,762825,,,,,[],30,,,,,,,,,,,,,,,,,,,,,,,,,,,,,,,,,,,,,,,,,,,,,,,,,,,
alien_welcome,767832,null,null,,,,,,,,12,31,76,15,9,117,40,100,106,24,61,51,103,66,114,67,93,5,50,4,25,85,64,75,101,29,39,41,68,78,70,105,90,107,82,34,91,8,58,56,35,73,59,16,83,22,13,23
land,768338,null,null,,98,,31,,,,,,,,,,,,,,,,,,,,,,,,,,,,,,,,,,,,,,,,,,,,,,,,,,,
dig,770344,,,,,[],31,,,,,,,,,,,,,,,,,,,,,,,,,,,,,,,,,,,,,,,,,,,,,,,,,,,
harvest,771851,null,null,,25,,31,,,,,,98,0.254429369,0.255102041,,,,,,,,,,,,,,,,,,,,,,,,,,,,,,,,,,,,,,,,,,,
decision,772082,230.1,76,,25,,31,,,,,,,,,306048,2,0,TRUE,,,,,,,,,,,,,,,,,,,,,,,,,,,,,,,,,,,,,,,
travel,781858,,,,,[],31,,,,,,,,,,,,,,,,,,,,,,,,,,,,,,,,,,,,,,,,,,,,,,,,,,,
alien_welcome,786865,null,null,,,,,,,,99,31,76,15,9,117,40,100,106,24,61,51,103,66,114,67,93,5,50,4,25,85,64,75,101,29,39,41,68,78,70,105,90,107,82,34,91,8,58,56,35,73,59,16,83,22,13,23
land,787370,null,null,,107,,32,,,,,,,,,,,,,,,,,,,,,,,,,,,,,,,,,,,,,,,,,,,,,,,,,,,
dig,789376,,,,,[],32,,,,,,,,,,,,,,,,,,,,,,,,,,,,,,,,,,,,,,,,,,,,,,,,,,,
harvest,790878,null,null,,88,,32,,,,,,107,0.825893575,0.822429907,,,,,,,,,,,,,,,,,,,,,,,,,,,,,,,,,,,,,,,,,,,
decision,790894,15,76,,88,,32,,,,,,,,,324860,2,0,TRUE,,,,,,,,,,,,,,,,,,,,,,,,,,,,,,,,,,,,,,,
travel,800883,,,,,[],32,,,,,,,,,,,,,,,,,,,,,,,,,,,,,,,,,,,,,,,,,,,,,,,,,,,
alien_welcome,805888,null,null,,,,,,,,11,31,76,15,9,117,40,100,106,24,61,51,103,66,114,67,93,5,50,4,25,85,64,75,101,29,39,41,68,78,70,105,90,107,82,34,91,8,58,56,35,73,59,16,83,22,13,23
land,806396,null,null,,98,,33,,,,,,,,,,,,,,,,,,,,,,,,,,,,,,,,,,,,,,,,,,,,,,,,,,,
dig,808400,,,,,[],33,,,,,,,,,,,,,,,,,,,,,,,,,,,,,,,,,,,,,,,,,,,,,,,,,,,
harvest,809902,null,null,,75,,33,,,,,,98,0.76772693,0.765306122,,,,,,,,,,,,,,,,,,,,,,,,,,,,,,,,,,,,,,,,,,,
decision,810052,148.4,76,,75,,33,,,,,,,,,344018,2,0,TRUE,,,,,,,,,,,,,,,,,,,,,,,,,,,,,,,,,,,,,,,
travel,819906,,,,,[],33,,,,,,,,,,,,,,,,,,,,,,,,,,,,,,,,,,,,,,,,,,,,,,,,,,,
alien_welcome,824912,null,null,,,,,,,,19,31,76,15,9,117,40,100,106,24,61,51,103,66,114,67,93,5,50,4,25,85,64,75,101,29,39,41,68,78,70,105,90,107,82,34,91,8,58,56,35,73,59,16,83,22,13,23
land,825418,null,null,,94,,34,,,,,,,,,,,,,,,,,,,,,,,,,,,,,,,,,,,,,,,,,,,,,,,,,,,
dig,827424,,,,,[],34,,,,,,,,,,,,,,,,,,,,,,,,,,,,,,,,,,,,,,,,,,,,,,,,,,,
harvest,828935,null,null,,72,,34,,,,,,94,0.770152307,0.765957447,,,,,,,,,,,,,,,,,,,,,,,,,,,,,,,,,,,,,,,,,,,
decision,829048,111.5,76,,72,,34,,,,,,,,,363013,2,0,TRUE,,,,,,,,,,,,,,,,,,,,,,,,,,,,,,,,,,,,,,,
end_of_block,832148,3095.9,32,,,,,,,,,,,,,,,,,,,,,,,,,,,,,,,,,,,,,,,,,,,,,,,,,,,,,,,
alien_welcome,837171,null,null,,,,,,,,88,31,76,15,9,117,40,100,106,24,61,51,103,66,114,67,93,5,50,4,25,85,64,75,101,29,39,41,68,78,70,105,90,107,82,34,91,8,58,56,35,73,59,16,83,22,13,23
land,837678,null,null,,110,,35,,,,,,,,,,,,,,,,,,,,,,,,,,,,,,,,,,,,,,,,,,,,,,,,,,,
dig,839682,,,,,[],35,,,,,,,,,,,,,,,,,,,,,,,,,,,,,,,,,,,,,,,,,,,,,,,,,,,
harvest,841183,null,null,,59,,35,,,,,,110,0.53238222,0.536363636,,,,,,,,,,,,,,,,,,,,,,,,,,,,,,,,,,,,,,,,,,,
decision,841420,235.6,76,,59,,35,,,,,,,,,9270,3,0,TRUE,,,,,,,,,,,,,,,,,,,,,,,,,,,,,,,,,,,,,,,
travel,851182,,,,,[],35,,,,,,,,,,,,,,,,,,,,,,,,,,,,,,,,,,,,,,,,,,,,,,,,,,,
alien_welcome,856187,null,null,,,,,,,,33,31,76,15,9,117,40,100,106,24,61,51,103,66,114,67,93,5,50,4,25,85,64,75,101,29,39,41,68,78,70,105,90,107,82,34,91,8,58,56,35,73,59,16,83,22,13,23
land,856694,null,null,,112,,36,,,,,,,,,,,,,,,,,,,,,,,,,,,,,,,,,,,,,,,,,,,,,,,,,,,
dig,858698,,,,,[],36,,,,,,,,,,,,,,,,,,,,,,,,,,,,,,,,,,,,,,,,,,,,,,,,,,,
harvest,860204,null,null,,92,,36,,,,,,112,0.823638149,0.821428571,,,,,,,,,,,,,,,,,,,,,,,,,,,,,,,,,,,,,,,,,,,
decision,860342,135.9,76,,92,,36,,,,,,,,,28191,3,0,TRUE,,,,,,,,,,,,,,,,,,,,,,,,,,,,,,,,,,,,,,,
travel,870212,,,,,[],36,,,,,,,,,,,,,,,,,,,,,,,,,,,,,,,,,,,,,,,,,,,,,,,,,,,
alien_welcome,875217,null,null,,,,,,,,62,31,76,15,9,117,40,100,106,24,61,51,103,66,114,67,93,5,50,4,25,85,64,75,101,29,39,41,68,78,70,105,90,107,82,34,91,8,58,56,35,73,59,16,83,22,13,23
land,875724,null,null,,102,,37,,,,,,,,,,,,,,,,,,,,,,,,,,,,,,,,,,,,,,,,,,,,,,,,,,,
dig,877728,,,,,[],37,,,,,,,,,,,,,,,,,,,,,,,,,,,,,,,,,,,,,,,,,,,,,,,,,,,
harvest,879233,null,null,,44,,37,,,,,,102,0.43344182,0.431372549,,,,,,,,,,,,,,,,,,,,,,,,,,,,,,,,,,,,,,,,,,,
decision,879349,115.1,76,,44,,37,,,,,,,,,47199,3,0,TRUE,,,,,,,,,,,,,,,,,,,,,,,,,,,,,,,,,,,,,,,
travel,889237,,,,,[],37,,,,,,,,,,,,,,,,,,,,,,,,,,,,,,,,,,,,,,,,,,,,,,,,,,,
alien_welcome,894239,null,null,,,,,,,,80,31,76,15,9,117,40,100,106,24,61,51,103,66,114,67,93,5,50,4,25,85,64,75,101,29,39,41,68,78,70,105,90,107,82,34,91,8,58,56,35,73,59,16,83,22,13,23
land,894741,null,null,,108,,38,,,,,,,,,,,,,,,,,,,,,,,,,,,,,,,,,,,,,,,,,,,,,,,,,,,
dig,896745,,,,,[],38,,,,,,,,,,,,,,,,,,,,,,,,,,,,,,,,,,,,,,,,,,,,,,,,,,,
harvest,898251,null,null,,58,,38,,,,,,108,0.535339859,0.537037037,,,,,,,,,,,,,,,,,,,,,,,,,,,,,,,,,,,,,,,,,,,
decision,898365,112.3,76,,58,,38,,,,,,,,,66214,3,0,TRUE,,,,,,,,,,,,,,,,,,,,,,,,,,,,,,,,,,,,,,,
travel,908254,,,,,[],38,,,,,,,,,,,,,,,,,,,,,,,,,,,,,,,,,,,,,,,,,,,,,,,,,,,
alien_welcome,913256,null,null,,,,,,,,53,31,76,15,9,117,40,100,106,24,61,51,103,66,114,67,93,5,50,4,25,85,64,75,101,29,39,41,68,78,70,105,90,107,82,34,91,8,58,56,35,73,59,16,83,22,13,23
land,913758,null,null,,104,,39,,,,,,,,,,,,,,,,,,,,,,,,,,,,,,,,,,,,,,,,,,,,,,,,,,,
dig,915762,,,,,[],39,,,,,,,,,,,,,,,,,,,,,,,,,,,,,,,,,,,,,,,,,,,,,,,,,,,
harvest,917270,null,null,,50,,39,,,,,,104,0.483357239,0.480769231,,,,,,,,,,,,,,,,,,,,,,,,,,,,,,,,,,,,,,,,,,,
decision,918911,1638.7,76,,50,,39,,,,,,,,,86760,3,0,TRUE,,,,,,,,,,,,,,,,,,,,,,,,,,,,,,,,,,,,,,,
travel,927279,,,,,[],39,,,,,,,,,,,,,,,,,,,,,,,,,,,,,,,,,,,,,,,,,,,,,,,,,,,
alien_welcome,932286,null,null,,,,,,,,10,31,76,15,9,117,40,100,106,24,61,51,103,66,114,67,93,5,50,4,25,85,64,75,101,29,39,41,68,78,70,105,90,107,82,34,91,8,58,56,35,73,59,16,83,22,13,23
land,932792,null,null,,108,,40,,,,,,,,,,,,,,,,,,,,,,,,,,,,,,,,,,,,,,,,,,,,,,,,,,,
dig,934796,,,,,[],40,,,,,,,,,,,,,,,,,,,,,,,,,,,,,,,,,,,,,,,,,,,,,,,,,,,
harvest,936304,null,null,,59,,40,,,,,,108,0.544272604,0.546296296,,,,,,,,,,,,,,,,,,,,,,,,,,,,,,,,,,,,,,,,,,,
decision,936831,525.7,76,,59,,40,,,,,,,,,104680,3,0,TRUE,,,,,,,,,,,,,,,,,,,,,,,,,,,,,,,,,,,,,,,
travel,946307,,,,,[],40,,,,,,,,,,,,,,,,,,,,,,,,,,,,,,,,,,,,,,,,,,,,,,,,,,,
alien_welcome,951314,null,null,,,,,,,,42,31,76,15,9,117,40,100,106,24,61,51,103,66,114,67,93,5,50,4,25,85,64,75,101,29,39,41,68,78,70,105,90,107,82,34,91,8,58,56,35,73,59,16,83,22,13,23
land,951821,null,null,,105,,41,,,,,,,,,,,,,,,,,,,,,,,,,,,,,,,,,,,,,,,,,,,,,,,,,,,
dig,953825,,,,,[],41,,,,,,,,,,,,,,,,,,,,,,,,,,,,,,,,,,,,,,,,,,,,,,,,,,,
harvest,955331,null,null,,88,,41,,,,,,105,0.839045762,0.838095238,,,,,,,,,,,,,,,,,,,,,,,,,,,,,,,,,,,,,,,,,,,
decision,955376,44.19999999,76,,88,,41,,,,,,,,,123226,3,0,TRUE,,,,,,,,,,,,,,,,,,,,,,,,,,,,,,,,,,,,,,,
travel,965338,,,,,[],41,,,,,,,,,,,,,,,,,,,,,,,,,,,,,,,,,,,,,,,,,,,,,,,,,,,
alien_welcome,970346,null,null,,,,,,,,45,31,76,15,9,117,40,100,106,24,61,51,103,66,114,67,93,5,50,4,25,85,64,75,101,29,39,41,68,78,70,105,90,107,82,34,91,8,58,56,35,73,59,16,83,22,13,23
land,970852,null,null,,96,,42,,,,,,,,,,,,,,,,,,,,,,,,,,,,,,,,,,,,,,,,,,,,,,,,,,,
dig,972856,,,,,[],42,,,,,,,,,,,,,,,,,,,,,,,,,,,,,,,,,,,,,,,,,,,,,,,,,,,
harvest,974566,null,null,,72,,42,,,,,,96,0.748543032,0.75,,,,,,,,,,,,,,,,,,,,,,,,,,,,,,,,,,,,,,,,,,,
decision,974568,1.399999976,76,,72,,42,,,,,,,,,142418,3,0,TRUE,,,,,,,,,,,,,,,,,,,,,,,,,,,,,,,,,,,,,,,
travel,984565,,,,,[],42,,,,,,,,,,,,,,,,,,,,,,,,,,,,,,,,,,,,,,,,,,,,,,,,,,,
alien_welcome,989567,null,null,,,,,,,,46,31,76,15,9,117,40,100,106,24,61,51,103,66,114,67,93,5,50,4,25,85,64,75,101,29,39,41,68,78,70,105,90,107,82,34,91,8,58,56,35,73,59,16,83,22,13,23
land,990074,null,null,,103,,43,,,,,,,,,,,,,,,,,,,,,,,,,,,,,,,,,,,,,,,,,,,,,,,,,,,
dig,992079,,,,,[],43,,,,,,,,,,,,,,,,,,,,,,,,,,,,,,,,,,,,,,,,,,,,,,,,,,,
harvest,993588,null,null,,47,,43,,,,,,103,0.459339531,0.45631068,,,,,,,,,,,,,,,,,,,,,,,,,,,,,,,,,,,,,,,,,,,
decision,993684,95.10000002,76,,47,,43,,,,,,,,,161534,3,0,TRUE,,,,,,,,,,,,,,,,,,,,,,,,,,,,,,,,,,,,,,,
travel,1003592,,,,,[],43,,,,,,,,,,,,,,,,,,,,,,,,,,,,,,,,,,,,,,,,,,,,,,,,,,,
alien_welcome,1008598,null,null,,,,,,,,98,31,76,15,9,117,40,100,106,24,61,51,103,66,114,67,93,5,50,4,25,85,64,75,101,29,39,41,68,78,70,105,90,107,82,34,91,8,58,56,35,73,59,16,83,22,13,23
land,1009105,null,null,,93,,44,,,,,,,,,,,,,,,,,,,,,,,,,,,,,,,,,,,,,,,,,,,,,,,,,,,
dig,1011110,,,,,[],44,,,,,,,,,,,,,,,,,,,,,,,,,,,,,,,,,,,,,,,,,,,,,,,,,,,
harvest,1012616,null,null,,46,,44,,,,,,93,0.491352216,0.494623656,,,,,,,,,,,,,,,,,,,,,,,,,,,,,,,,,,,,,,,,,,,
decision,1012758,140.3,76,,46,,44,,,,,,,,,180609,3,0,TRUE,,,,,,,,,,,,,,,,,,,,,,,,,,,,,,,,,,,,,,,
travel,1022622,,,,,[],44,,,,,,,,,,,,,,,,,,,,,,,,,,,,,,,,,,,,,,,,,,,,,,,,,,,
alien_welcome,1027630,null,null,,,,,,,,17,31,76,15,9,117,40,100,106,24,61,51,103,66,114,67,93,5,50,4,25,85,64,75,101,29,39,41,68,78,70,105,90,107,82,34,91,8,58,56,35,73,59,16,83,22,13,23
land,1028137,null,null,,95,,45,,,,,,,,,,,,,,,,,,,,,,,,,,,,,,,,,,,,,,,,,,,,,,,,,,,
dig,1030143,,,,,[],45,,,,,,,,,,,,,,,,,,,,,,,,,,,,,,,,,,,,,,,,,,,,,,,,,,,
harvest,1031650,null,null,,80,,45,,,,,,95,0.840804184,0.842105263,,,,,,,,,,,,,,,,,,,,,,,,,,,,,,,,,,,,,,,,,,,
decision,1031754,102,76,,80,,45,,,,,,,,,199603,3,0,TRUE,,,,,,,,,,,,,,,,,,,,,,,,,,,,,,,,,,,,,,,
travel,1041652,,,,,[],45,,,,,,,,,,,,,,,,,,,,,,,,,,,,,,,,,,,,,,,,,,,,,,,,,,,
alien_welcome,1046660,null,null,,,,,,,,18,31,76,15,9,117,40,100,106,24,61,51,103,66,114,67,93,5,50,4,25,85,64,75,101,29,39,41,68,78,70,105,90,107,82,34,91,8,58,56,35,73,59,16,83,22,13,23
land,1047166,null,null,,94,,46,,,,,,,,,,,,,,,,,,,,,,,,,,,,,,,,,,,,,,,,,,,,,,,,,,,
dig,1049171,,,,,[],46,,,,,,,,,,,,,,,,,,,,,,,,,,,,,,,,,,,,,,,,,,,,,,,,,,,
harvest,1050680,null,null,,74,,46,,,,,,94,0.791200689,0.787234043,,,,,,,,,,,,,,,,,,,,,,,,,,,,,,,,,,,,,,,,,,,
decision,1050895,211.1,76,,74,,46,,,,,,,,,218744,3,0,TRUE,,,,,,,,,,,,,,,,,,,,,,,,,,,,,,,,,,,,,,,
travel,1060685,,,,,[],46,,,,,,,,,,,,,,,,,,,,,,,,,,,,,,,,,,,,,,,,,,,,,,,,,,,
alien_welcome,1065693,null,null,,,,,,,,38,31,76,15,9,117,40,100,106,24,61,51,103,66,114,67,93,5,50,4,25,85,64,75,101,29,39,41,68,78,70,105,90,107,82,34,91,8,58,56,35,73,59,16,83,22,13,23
land,1066200,null,null,,101,,47,,,,,,,,,,,,,,,,,,,,,,,,,,,,,,,,,,,,,,,,,,,,,,,,,,,
dig,1068206,,,,,[],47,,,,,,,,,,,,,,,,,,,,,,,,,,,,,,,,,,,,,,,,,,,,,,,,,,,
harvest,1069712,null,null,,78,,47,,,,,,101,0.776175508,0.772277228,,,,,,,,,,,,,,,,,,,,,,,,,,,,,,,,,,,,,,,,,,,
decision,1069836,121.1,76,,78,,47,,,,,,,,,237685,3,0,TRUE,,,,,,,,,,,,,,,,,,,,,,,,,,,,,,,,,,,,,,,
travel,1079717,,,,,[],47,,,,,,,,,,,,,,,,,,,,,,,,,,,,,,,,,,,,,,,,,,,,,,,,,,,
alien_welcome,1084724,null,null,,,,,,,,102,31,76,15,9,117,40,100,106,24,61,51,103,66,114,67,93,5,50,4,25,85,64,75,101,29,39,41,68,78,70,105,90,107,82,34,91,8,58,56,35,73,59,16,83,22,13,23
land,1085232,null,null,,100,,48,,,,,,,,,,,,,,,,,,,,,,,,,,,,,,,,,,,,,,,,,,,,,,,,,,,
dig,1087238,,,,,[],48,,,,,,,,,,,,,,,,,,,,,,,,,,,,,,,,,,,,,,,,,,,,,,,,,,,
harvest,1088741,null,null,,73,,48,,,,,,100,0.727471704,0.73,,,,,,,,,,,,,,,,,,,,,,,,,,,,,,,,,,,,,,,,,,,
decision,1089301,559,76,,73,,48,,,,,,,,,257151,3,0,TRUE,,,,,,,,,,,,,,,,,,,,,,,,,,,,,,,,,,,,,,,
travel,1098750,,,,,[],48,,,,,,,,,,,,,,,,,,,,,,,,,,,,,,,,,,,,,,,,,,,,,,,,,,,
alien_welcome,1103757,null,null,,,,,,,,79,31,76,15,9,117,40,100,106,24,61,51,103,66,114,67,93,5,50,4,25,85,64,75,101,29,39,41,68,78,70,105,90,107,82,34,91,8,58,56,35,73,59,16,83,22,13,23
land,1104263,null,null,,92,,49,,,,,,,,,,,,,,,,,,,,,,,,,,,,,,,,,,,,,,,,,,,,,,,,,,,
dig,1106268,,,,,[],49,,,,,,,,,,,,,,,,,,,,,,,,,,,,,,,,,,,,,,,,,,,,,,,,,,,
harvest,1107770,null,null,,46,,49,,,,,,92,0.49467243,0.5,,,,,,,,,,,,,,,,,,,,,,,,,,,,,,,,,,,,,,,,,,,
decision,1107924,152.6,76,,46,,49,,,,,,,,,275774,3,0,TRUE,,,,,,,,,,,,,,,,,,,,,,,,,,,,,,,,,,,,,,,
travel,1117778,,,,,[],49,,,,,,,,,,,,,,,,,,,,,,,,,,,,,,,,,,,,,,,,,,,,,,,,,,,
alien_welcome,1122784,null,null,,,,,,,,14,31,76,15,9,117,40,100,106,24,61,51,103,66,114,67,93,5,50,4,25,85,64,75,101,29,39,41,68,78,70,105,90,107,82,34,91,8,58,56,35,73,59,16,83,22,13,23
land,1123290,null,null,,100,,50,,,,,,,,,,,,,,,,,,,,,,,,,,,,,,,,,,,,,,,,,,,,,,,,,,,
dig,1125295,,,,,[],50,,,,,,,,,,,,,,,,,,,,,,,,,,,,,,,,,,,,,,,,,,,,,,,,,,,
harvest,1126801,null,null,,55,,50,,,,,,100,0.553673954,0.55,,,,,,,,,,,,,,,,,,,,,,,,,,,,,,,,,,,,,,,,,,,
decision,1127749,945.9,76,,55,,50,,,,,,,,,295598,3,0,TRUE,,,,,,,,,,,,,,,,,,,,,,,,,,,,,,,,,,,,,,,
travel,1136811,,,,,[],50,,,,,,,,,,,,,,,,,,,,,,,,,,,,,,,,,,,,,,,,,,,,,,,,,,,
alien_welcome,1141816,null,null,,,,,,,,63,31,76,15,9,117,40,100,106,24,61,51,103,66,114,67,93,5,50,4,25,85,64,75,101,29,39,41,68,78,70,105,90,107,82,34,91,8,58,56,35,73,59,16,83,22,13,23
land,1142322,null,null,,99,,51,,,,,,,,,,,,,,,,,,,,,,,,,,,,,,,,,,,,,,,,,,,,,,,,,,,
dig,1144326,,,,,[],51,,,,,,,,,,,,,,,,,,,,,,,,,,,,,,,,,,,,,,,,,,,,,,,,,,,
harvest,1145833,null,null,,76,,51,,,,,,99,0.769643161,0.767676768,,,,,,,,,,,,,,,,,,,,,,,,,,,,,,,,,,,,,,,,,,,
decision,1145958,123.5,76,,76,,51,,,,,,,,,313807,3,0,TRUE,,,,,,,,,,,,,,,,,,,,,,,,,,,,,,,,,,,,,,,
travel,1155839,,,,,[],51,,,,,,,,,,,,,,,,,,,,,,,,,,,,,,,,,,,,,,,,,,,,,,,,,,,
alien_welcome,1160845,null,null,,,,,,,,95,31,76,15,9,117,40,100,106,24,61,51,103,66,114,67,93,5,50,4,25,85,64,75,101,29,39,41,68,78,70,105,90,107,82,34,91,8,58,56,35,73,59,16,83,22,13,23
land,1161347,null,null,,93,,52,,,,,,,,,,,,,,,,,,,,,,,,,,,,,,,,,,,,,,,,,,,,,,,,,,,
dig,1163351,,,,,[],52,,,,,,,,,,,,,,,,,,,,,,,,,,,,,,,,,,,,,,,,,,,,,,,,,,,
harvest,1164862,null,null,,78,,52,,,,,,93,0.843158554,0.838709677,,,,,,,,,,,,,,,,,,,,,,,,,,,,,,,,,,,,,,,,,,,
decision,1165924,1060.8,76,,78,,52,,,,,,,,,333773,3,0,TRUE,,,,,,,,,,,,,,,,,,,,,,,,,,,,,,,,,,,,,,,
travel,1174868,,,,,[],52,,,,,,,,,,,,,,,,,,,,,,,,,,,,,,,,,,,,,,,,,,,,,,,,,,,
alien_welcome,1179870,null,null,,,,,,,,48,31,76,15,9,117,40,100,106,24,61,51,103,66,114,67,93,5,50,4,25,85,64,75,101,29,39,41,68,78,70,105,90,107,82,34,91,8,58,56,35,73,59,16,83,22,13,23
land,1180372,null,null,,93,,53,,,,,,,,,,,,,,,,,,,,,,,,,,,,,,,,,,,,,,,,,,,,,,,,,,,
dig,1182376,,,,,[],53,,,,,,,,,,,,,,,,,,,,,,,,,,,,,,,,,,,,,,,,,,,,,,,,,,,
harvest,1183882,null,null,,78,,53,,,,,,93,0.835548353,0.838709677,,,,,,,,,,,,,,,,,,,,,,,,,,,,,,,,,,,,,,,,,,,
decision,1184118,234.3,76,,78,,53,,,,,,,,,351967,3,0,TRUE,,,,,,,,,,,,,,,,,,,,,,,,,,,,,,,,,,,,,,,
travel,1193889,,,,,[],53,,,,,,,,,,,,,,,,,,,,,,,,,,,,,,,,,,,,,,,,,,,,,,,,,,,
alien_welcome,1198896,null,null,,,,,,,,30,31,76,15,9,117,40,100,106,24,61,51,103,66,114,67,93,5,50,4,25,85,64,75,101,29,39,41,68,78,70,105,90,107,82,34,91,8,58,56,35,73,59,16,83,22,13,23
land,1199403,null,null,,103,,54,,,,,,,,,,,,,,,,,,,,,,,,,,,,,,,,,,,,,,,,,,,,,,,,,,,
dig,1201407,,,,,[],54,,,,,,,,,,,,,,,,,,,,,,,,,,,,,,,,,,,,,,,,,,,,,,,,,,,
harvest,1202913,null,null,,86,,54,,,,,,103,0.838443767,0.834951456,,,,,,,,,,,,,,,,,,,,,,,,,,,,,,,,,,,,,,,,,,,
decision,1203199,284.2,76,,86,,54,,,,,,,,,371048,3,0,TRUE,,,,,,,,,,,,,,,,,,,,,,,,,,,,,,,,,,,,,,,
end_of_block,1205339,2132,32,,,,,,,,,,,,,,,,,,,,,,,,,,,,,,,,,,,,,,,,,,,,,,,,,,,,,,,
alien_welcome,1210370,null,null,,,,,,,,104,31,76,15,9,117,40,100,106,24,61,51,103,66,114,67,93,5,50,4,25,85,64,75,101,29,39,41,68,78,70,105,90,107,82,34,91,8,58,56,35,73,59,16,83,22,13,23
land,1210877,null,null,,101,,55,,,,,,,,,,,,,,,,,,,,,,,,,,,,,,,,,,,,,,,,,,,,,,,,,,,
dig,1212881,,,,,[],55,,,,,,,,,,,,,,,,,,,,,,,,,,,,,,,,,,,,,,,,,,,,,,,,,,,
harvest,1214387,null,null,,16,,55,,,,,,101,0.157106063,0.158415842,,,,,,,,,,,,,,,,,,,,,,,,,,,,,,,,,,,,,,,,,,,
decision,1215591,1202.8,76,,16,,55,,,,,,,,,10249,4,0,TRUE,,,,,,,,,,,,,,,,,,,,,,,,,,,,,,,,,,,,,,,
travel,1224397,,,,,[],55,,,,,,,,,,,,,,,,,,,,,,,,,,,,,,,,,,,,,,,,,,,,,,,,,,,
alien_welcome,1229403,null,null,,,,,,,,65,31,76,15,9,117,40,100,106,24,61,51,103,66,114,67,93,5,50,4,25,85,64,75,101,29,39,41,68,78,70,105,90,107,82,34,91,8,58,56,35,73,59,16,83,22,13,23
land,1229908,null,null,,105,,56,,,,,,,,,,,,,,,,,,,,,,,,,,,,,,,,,,,,,,,,,,,,,,,,,,,
dig,1231913,,,,,[],56,,,,,,,,,,,,,,,,,,,,,,,,,,,,,,,,,,,,,,,,,,,,,,,,,,,
harvest,1233415,null,null,,29,,56,,,,,,105,0.273271398,0.276190476,,,,,,,,,,,,,,,,,,,,,,,,,,,,,,,,,,,,,,,,,,,
decision,1233613,196,76,,29,,56,,,,,,,,,28271,4,0,TRUE,,,,,,,,,,,,,,,,,,,,,,,,,,,,,,,,,,,,,,,
travel,1243422,,,,,[],56,,,,,,,,,,,,,,,,,,,,,,,,,,,,,,,,,,,,,,,,,,,,,,,,,,,
alien_welcome,1248430,null,null,,,,,,,,47,31,76,15,9,117,40,100,106,24,61,51,103,66,114,67,93,5,50,4,25,85,64,75,101,29,39,41,68,78,70,105,90,107,82,34,91,8,58,56,35,73,59,16,83,22,13,23
land,1248938,null,null,,104,,57,,,,,,,,,,,,,,,,,,,,,,,,,,,,,,,,,,,,,,,,,,,,,,,,,,,
dig,1250942,,,,,[],57,,,,,,,,,,,,,,,,,,,,,,,,,,,,,,,,,,,,,,,,,,,,,,,,,,,
harvest,1252444,null,null,,26,,57,,,,,,104,0.254145295,0.25,,,,,,,,,,,,,,,,,,,,,,,,,,,,,,,,,,,,,,,,,,,
decision,1252616,170.3,76,,26,,57,,,,,,,,,47274,4,0,TRUE,,,,,,,,,,,,,,,,,,,,,,,,,,,,,,,,,,,,,,,
travel,1262452,,,,,[],57,,,,,,,,,,,,,,,,,,,,,,,,,,,,,,,,,,,,,,,,,,,,,,,,,,,
alien_welcome,1267457,null,null,,,,,,,,72,31,76,15,9,117,40,100,106,24,61,51,103,66,114,67,93,5,50,4,25,85,64,75,101,29,39,41,68,78,70,105,90,107,82,34,91,8,58,56,35,73,59,16,83,22,13,23
land,1267962,null,null,,99,,58,,,,,,,,,,,,,,,,,,,,,,,,,,,,,,,,,,,,,,,,,,,,,,,,,,,
dig,1269967,,,,,[],58,,,,,,,,,,,,,,,,,,,,,,,,,,,,,,,,,,,,,,,,,,,,,,,,,,,
harvest,1271474,null,null,,61,,58,,,,,,99,0.616204159,0.616161616,,,,,,,,,,,,,,,,,,,,,,,,,,,,,,,,,,,,,,,,,,,
decision,1271529,54.10000002,76,,61,,58,,,,,,,,,66187,4,0,TRUE,,,,,,,,,,,,,,,,,,,,,,,,,,,,,,,,,,,,,,,
travel,1281482,,,,,[],58,,,,,,,,,,,,,,,,,,,,,,,,,,,,,,,,,,,,,,,,,,,,,,,,,,,
alien_welcome,1286491,null,null,,,,,,,,49,31,76,15,9,117,40,100,106,24,61,51,103,66,114,67,93,5,50,4,25,85,64,75,101,29,39,41,68,78,70,105,90,107,82,34,91,8,58,56,35,73,59,16,83,22,13,23
land,1286997,null,null,,95,,59,,,,,,,,,,,,,,,,,,,,,,,,,,,,,,,,,,,,,,,,,,,,,,,,,,,
dig,1289002,,,,,[],59,,,,,,,,,,,,,,,,,,,,,,,,,,,,,,,,,,,,,,,,,,,,,,,,,,,
harvest,1290508,null,null,,85,,59,,,,,,95,0.897706392,0.894736842,,,,,,,,,,,,,,,,,,,,,,,,,,,,,,,,,,,,,,,,,,,
decision,1290580,70.80000001,76,,85,,59,,,,,,,,,85238,4,0,TRUE,,,,,,,,,,,,,,,,,,,,,,,,,,,,,,,,,,,,,,,
travel,1300516,,,,,[],59,,,,,,,,,,,,,,,,,,,,,,,,,,,,,,,,,,,,,,,,,,,,,,,,,,,
alien_welcome,1305518,null,null,,,,,,,,21,31,76,15,9,117,40,100,106,24,61,51,103,66,114,67,93,5,50,4,25,85,64,75,101,29,39,41,68,78,70,105,90,107,82,34,91,8,58,56,35,73,59,16,83,22,13,23
land,1306020,null,null,,101,,60,,,,,,,,,,,,,,,,,,,,,,,,,,,,,,,,,,,,,,,,,,,,,,,,,,,
dig,1308026,,,,,[],60,,,,,,,,,,,,,,,,,,,,,,,,,,,,,,,,,,,,,,,,,,,,,,,,,,,
harvest,1309527,null,null,,87,,60,,,,,,101,0.861708205,0.861386139,,,,,,,,,,,,,,,,,,,,,,,,,,,,,,,,,,,,,,,,,,,
decision,1309529,0.900000036,76,,87,,60,,,,,,,,,104186,4,0,TRUE,,,,,,,,,,,,,,,,,,,,,,,,,,,,,,,,,,,,,,,
travel,1319535,,,,,[],60,,,,,,,,,,,,,,,,,,,,,,,,,,,,,,,,,,,,,,,,,,,,,,,,,,,
alien_welcome,1324538,null,null,,,,,,,,43,31,76,15,9,117,40,100,106,24,61,51,103,66,114,67,93,5,50,4,25,85,64,75,101,29,39,41,68,78,70,105,90,107,82,34,91,8,58,56,35,73,59,16,83,22,13,23
land,1325039,null,null,,92,,61,,,,,,,,,,,,,,,,,,,,,,,,,,,,,,,,,,,,,,,,,,,,,,,,,,,
dig,1327046,,,,,[],61,,,,,,,,,,,,,,,,,,,,,,,,,,,,,,,,,,,,,,,,,,,,,,,,,,,
harvest,1328551,null,null,,80,,61,,,,,,92,0.869817004,0.869565217,,,,,,,,,,,,,,,,,,,,,,,,,,,,,,,,,,,,,,,,,,,
decision,1328901,348.3,76,,80,,61,,,,,,,,,123559,4,0,TRUE,,,,,,,,,,,,,,,,,,,,,,,,,,,,,,,,,,,,,,,
travel,1338564,,,,,[],61,,,,,,,,,,,,,,,,,,,,,,,,,,,,,,,,,,,,,,,,,,,,,,,,,,,
alien_welcome,1343571,null,null,,,,,,,,69,31,76,15,9,117,40,100,106,24,61,51,103,66,114,67,93,5,50,4,25,85,64,75,101,29,39,41,68,78,70,105,90,107,82,34,91,8,58,56,35,73,59,16,83,22,13,23
land,1344077,null,null,,99,,62,,,,,,,,,,,,,,,,,,,,,,,,,,,,,,,,,,,,,,,,,,,,,,,,,,,
dig,1346082,,,,,[],62,,,,,,,,,,,,,,,,,,,,,,,,,,,,,,,,,,,,,,,,,,,,,,,,,,,
harvest,1347593,null,null,,83,,62,,,,,,99,0.835927202,0.838383838,,,,,,,,,,,,,,,,,,,,,,,,,,,,,,,,,,,,,,,,,,,
decision,1347796,201.2,76,,83,,62,,,,,,,,,142453,4,0,TRUE,,,,,,,,,,,,,,,,,,,,,,,,,,,,,,,,,,,,,,,
travel,1357598,,,,,[],62,,,,,,,,,,,,,,,,,,,,,,,,,,,,,,,,,,,,,,,,,,,,,,,,,,,
alien_welcome,1362605,null,null,,,,,,,,119,31,76,15,9,117,40,100,106,24,61,51,103,66,114,67,93,5,50,4,25,85,64,75,101,29,39,41,68,78,70,105,90,107,82,34,91,8,58,56,35,73,59,16,83,22,13,23
land,1363112,null,null,,97,,63,,,,,,,,,,,,,,,,,,,,,,,,,,,,,,,,,,,,,,,,,,,,,,,,,,,
dig,1365121,,,,,[],63,,,,,,,,,,,,,,,,,,,,,,,,,,,,,,,,,,,,,,,,,,,,,,,,,,,
harvest,1366626,null,null,,73,,63,,,,,,97,0.755567737,0.75257732,,,,,,,,,,,,,,,,,,,,,,,,,,,,,,,,,,,,,,,,,,,
decision,1366636,8.200000048,76,,73,,63,,,,,,,,,161294,4,0,TRUE,,,,,,,,,,,,,,,,,,,,,,,,,,,,,,,,,,,,,,,
travel,1376638,,,,,[],63,,,,,,,,,,,,,,,,,,,,,,,,,,,,,,,,,,,,,,,,,,,,,,,,,,,
alien_welcome,1381644,null,null,,,,,,,,71,31,76,15,9,117,40,100,106,24,61,51,103,66,114,67,93,5,50,4,25,85,64,75,101,29,39,41,68,78,70,105,90,107,82,34,91,8,58,56,35,73,59,16,83,22,13,23
land,1382151,null,null,,101,,64,,,,,,,,,,,,,,,,,,,,,,,,,,,,,,,,,,,,,,,,,,,,,,,,,,,
dig,1384156,,,,,[],64,,,,,,,,,,,,,,,,,,,,,,,,,,,,,,,,,,,,,,,,,,,,,,,,,,,
harvest,1385663,null,null,,30,,64,,,,,,101,0.296007877,0.297029703,,,,,,,,,,,,,,,,,,,,,,,,,,,,,,,,,,,,,,,,,,,
decision,1385694,28.70000005,76,,30,,64,,,,,,,,,180352,4,0,TRUE,,,,,,,,,,,,,,,,,,,,,,,,,,,,,,,,,,,,,,,
travel,1395666,,,,,[],64,,,,,,,,,,,,,,,,,,,,,,,,,,,,,,,,,,,,,,,,,,,,,,,,,,,
alien_welcome,1400675,null,null,,,,,,,,86,31,76,15,9,117,40,100,106,24,61,51,103,66,114,67,93,5,50,4,25,85,64,75,101,29,39,41,68,78,70,105,90,107,82,34,91,8,58,56,35,73,59,16,83,22,13,23
land,1401181,null,null,,108,,65,,,,,,,,,,,,,,,,,,,,,,,,,,,,,,,,,,,,,,,,,,,,,,,,,,,
dig,1403185,,,,,[],65,,,,,,,,,,,,,,,,,,,,,,,,,,,,,,,,,,,,,,,,,,,,,,,,,,,
harvest,1404690,null,null,,20,,65,,,,,,108,0.189386953,0.185185185,,,,,,,,,,,,,,,,,,,,,,,,,,,,,,,,,,,,,,,,,,,
decision,1404796,104.8,76,,20,,65,,,,,,,,,199454,4,0,TRUE,,,,,,,,,,,,,,,,,,,,,,,,,,,,,,,,,,,,,,,
travel,1414695,,,,,[],65,,,,,,,,,,,,,,,,,,,,,,,,,,,,,,,,,,,,,,,,,,,,,,,,,,,
alien_welcome,1419700,null,null,,,,,,,,20,31,76,15,9,117,40,100,106,24,61,51,103,66,114,67,93,5,50,4,25,85,64,75,101,29,39,41,68,78,70,105,90,107,82,34,91,8,58,56,35,73,59,16,83,22,13,23
land,1420206,null,null,,90,,66,,,,,,,,,,,,,,,,,,,,,,,,,,,,,,,,,,,,,,,,,,,,,,,,,,,
dig,1422211,,,,,[],66,,,,,,,,,,,,,,,,,,,,,,,,,,,,,,,,,,,,,,,,,,,,,,,,,,,
harvest,1423713,null,null,,72,,66,,,,,,90,0.801449979,0.8,,,,,,,,,,,,,,,,,,,,,,,,,,,,,,,,,,,,,,,,,,,
decision,1423789,74.60000002,76,,72,,66,,,,,,,,,218447,4,0,TRUE,,,,,,,,,,,,,,,,,,,,,,,,,,,,,,,,,,,,,,,
travel,1433716,,,,,[],66,,,,,,,,,,,,,,,,,,,,,,,,,,,,,,,,,,,,,,,,,,,,,,,,,,,
alien_welcome,1438725,null,null,,,,,,,,44,31,76,15,9,117,40,100,106,24,61,51,103,66,114,67,93,5,50,4,25,85,64,75,101,29,39,41,68,78,70,105,90,107,82,34,91,8,58,56,35,73,59,16,83,22,13,23
land,1439231,null,null,,103,,67,,,,,,,,,,,,,,,,,,,,,,,,,,,,,,,,,,,,,,,,,,,,,,,,,,,
dig,1441236,,,,,[],67,,,,,,,,,,,,,,,,,,,,,,,,,,,,,,,,,,,,,,,,,,,,,,,,,,,
harvest,1442741,null,null,,80,,67,,,,,,103,0.780375888,0.776699029,,,,,,,,,,,,,,,,,,,,,,,,,,,,,,,,,,,,,,,,,,,
decision,1443999,1256.6,76,,80,,67,,,,,,,,,238656,4,0,TRUE,,,,,,,,,,,,,,,,,,,,,,,,,,,,,,,,,,,,,,,
travel,1452747,,,,,[],67,,,,,,,,,,,,,,,,,,,,,,,,,,,,,,,,,,,,,,,,,,,,,,,,,,,
alien_welcome,1457755,null,null,,,,,,,,108,31,76,15,9,117,40,100,106,24,61,51,103,66,114,67,93,5,50,4,25,85,64,75,101,29,39,41,68,78,70,105,90,107,82,34,91,8,58,56,35,73,59,16,83,22,13,23
land,1458261,null,null,,97,,68,,,,,,,,,,,,,,,,,,,,,,,,,,,,,,,,,,,,,,,,,,,,,,,,,,,
dig,1460269,,,,,[],68,,,,,,,,,,,,,,,,,,,,,,,,,,,,,,,,,,,,,,,,,,,,,,,,,,,
harvest,1461775,null,null,,79,,68,,,,,,97,0.812274898,0.81443299,,,,,,,,,,,,,,,,,,,,,,,,,,,,,,,,,,,,,,,,,,,
decision,1462592,815.7,76,,79,,68,,,,,,,,,257250,4,0,TRUE,,,,,,,,,,,,,,,,,,,,,,,,,,,,,,,,,,,,,,,
travel,1471782,,,,,[],68,,,,,,,,,,,,,,,,,,,,,,,,,,,,,,,,,,,,,,,,,,,,,,,,,,,
alien_welcome,1476790,null,null,,,,,,,,118,31,76,15,9,117,40,100,106,24,61,51,103,66,114,67,93,5,50,4,25,85,64,75,101,29,39,41,68,78,70,105,90,107,82,34,91,8,58,56,35,73,59,16,83,22,13,23
land,1477298,null,null,,95,,69,,,,,,,,,,,,,,,,,,,,,,,,,,,,,,,,,,,,,,,,,,,,,,,,,,,
dig,1479302,,,,,[],69,,,,,,,,,,,,,,,,,,,,,,,,,,,,,,,,,,,,,,,,,,,,,,,,,,,
harvest,1480811,null,null,,75,,69,,,,,,95,0.78423157,0.789473684,,,,,,,,,,,,,,,,,,,,,,,,,,,,,,,,,,,,,,,,,,,
decision,1480896,83.89999998,76,,75,,69,,,,,,,,,275553,4,0,TRUE,,,,,,,,,,,,,,,,,,,,,,,,,,,,,,,,,,,,,,,
travel,1490814,,,,,[],69,,,,,,,,,,,,,,,,,,,,,,,,,,,,,,,,,,,,,,,,,,,,,,,,,,,
alien_welcome,1495820,null,null,,,,,,,,60,31,76,15,9,117,40,100,106,24,61,51,103,66,114,67,93,5,50,4,25,85,64,75,101,29,39,41,68,78,70,105,90,107,82,34,91,8,58,56,35,73,59,16,83,22,13,23
land,1496323,null,null,,102,,70,,,,,,,,,,,,,,,,,,,,,,,,,,,,,,,,,,,,,,,,,,,,,,,,,,,
dig,1498329,,,,,[],70,,,,,,,,,,,,,,,,,,,,,,,,,,,,,,,,,,,,,,,,,,,,,,,,,,,
harvest,1499868,null,null,,79,,70,,,,,,102,0.771492643,0.774509804,,,,,,,,,,,,,,,,,,,,,,,,,,,,,,,,,,,,,,,,,,,
decision,1501871,null,null,,79,,70,,,,,,,,,296529,4,0,FALSE,,,,,,,,,,,,,,,,,,,,,,,,,,,,,,,,,,,,,,,
time_out,1503887,null,null,,79,,,,,,,,,,,,,,,,,,,,,,,,,,,,,,,,,,,,,,,,,,,,,,,,,,,,,
decision,1505889,null,null,,79,,70,,,,,,,,,300547,4,0,FALSE,,,,,,,,,,,,,,,,,,,,,,,,,,,,,,,,,,,,,,,
time_out,1507896,null,null,,79,,,,,,,,,,,,,,,,,,,,,,,,,,,,,,,,,,,,,,,,,,,,,,,,,,,,,
decision,1509900,null,null,,79,,70,,,,,,,,,304558,4,0,FALSE,,,,,,,,,,,,,,,,,,,,,,,,,,,,,,,,,,,,,,,
time_out,1511915,null,null,,79,,,,,,,,,,,,,,,,,,,,,,,,,,,,,,,,,,,,,,,,,,,,,,,,,,,,,
decision,1513919,null,null,,79,,70,,,,,,,,,308576,4,0,FALSE,,,,,,,,,,,,,,,,,,,,,,,,,,,,,,,,,,,,,,,
time_out,1515926,null,null,,79,,,,,,,,,,,,,,,,,,,,,,,,,,,,,,,,,,,,,,,,,,,,,,,,,,,,,
decision,1517929,null,null,,79,,70,,,,,,,,,312587,4,0,FALSE,,,,,,,,,,,,,,,,,,,,,,,,,,,,,,,,,,,,,,,
time_out,1519941,null,null,,79,,,,,,,,,,,,,,,,,,,,,,,,,,,,,,,,,,,,,,,,,,,,,,,,,,,,,
decision,1520729,786.4,76,,79,,70,,,,,,,,,315386,4,0,TRUE,,,,,,,,,,,,,,,,,,,,,,,,,,,,,,,,,,,,,,,
travel,1529948,,,,,[],70,,,,,,,,,,,,,,,,,,,,,,,,,,,,,,,,,,,,,,,,,,,,,,,,,,,
alien_welcome,1534951,null,null,,,,,,,,37,31,76,15,9,117,40,100,106,24,61,51,103,66,114,67,93,5,50,4,25,85,64,75,101,29,39,41,68,78,70,105,90,107,82,34,91,8,58,56,35,73,59,16,83,22,13,23
land,1535453,null,null,,102,,71,,,,,,,,,,,,,,,,,,,,,,,,,,,,,,,,,,,,,,,,,,,,,,,,,,,
dig,1537458,,,,,[],71,,,,,,,,,,,,,,,,,,,,,,,,,,,,,,,,,,,,,,,,,,,,,,,,,,,
harvest,1538966,null,null,,84,,71,,,,,,102,0.822522623,0.823529412,,,,,,,,,,,,,,,,,,,,,,,,,,,,,,,,,,,,,,,,,,,
decision,1538989,21.70000005,76,,84,,71,,,,,,,,,333646,4,0,TRUE,,,,,,,,,,,,,,,,,,,,,,,,,,,,,,,,,,,,,,,
travel,1548969,,,,,[],71,,,,,,,,,,,,,,,,,,,,,,,,,,,,,,,,,,,,,,,,,,,,,,,,,,,
alien_welcome,1553976,null,null,,,,,,,,3,31,76,15,9,117,40,100,106,24,61,51,103,66,114,67,93,5,50,4,25,85,64,75,101,29,39,41,68,78,70,105,90,107,82,34,91,8,58,56,35,73,59,16,83,22,13,23
land,1554485,null,null,,107,,72,,,,,,,,,,,,,,,,,,,,,,,,,,,,,,,,,,,,,,,,,,,,,,,,,,,
dig,1556490,,,,,[],72,,,,,,,,,,,,,,,,,,,,,,,,,,,,,,,,,,,,,,,,,,,,,,,,,,,
harvest,1557999,null,null,,74,,72,,,,,,107,0.694754499,0.691588785,,,,,,,,,,,,,,,,,,,,,,,,,,,,,,,,,,,,,,,,,,,
decision,1558051,50.5,76,,74,,72,,,,,,,,,352708,4,0,TRUE,,,,,,,,,,,,,,,,,,,,,,,,,,,,,,,,,,,,,,,
travel,1568005,,,,,[],72,,,,,,,,,,,,,,,,,,,,,,,,,,,,,,,,,,,,,,,,,,,,,,,,,,,
alien_welcome,1573014,null,null,,,,,,,,112,31,76,15,9,117,40,100,106,24,61,51,103,66,114,67,93,5,50,4,25,85,64,75,101,29,39,41,68,78,70,105,90,107,82,34,91,8,58,56,35,73,59,16,83,22,13,23
land,1573521,null,null,,95,,73,,,,,,,,,,,,,,,,,,,,,,,,,,,,,,,,,,,,,,,,,,,,,,,,,,,
dig,1575526,,,,,[],73,,,,,,,,,,,,,,,,,,,,,,,,,,,,,,,,,,,,,,,,,,,,,,,,,,,
harvest,1577032,null,null,,78,,73,,,,,,95,0.816832917,0.821052632,,,,,,,,,,,,,,,,,,,,,,,,,,,,,,,,,,,,,,,,,,,
decision,1577058,24.5,76,,78,,73,,,,,,,,,371716,4,0,TRUE,,,,,,,,,,,,,,,,,,,,,,,,,,,,,,,,,,,,,,,
end_of_block,1578171,1106.5,32,,,,,,,,,,,,,,,,,,,,,,,,,,,,,,,,,,,,,,,,,,,,,,,,,,,,,,,